time,seconds_elapsed,z,y,x
1788093356094751700,0.103751708984375,0,0,0
1788093356104814800,0.11381494140625,2.2974493503570557,0.1854257583618164,-0.40649545192718506
1788093356114878000,0.1238779296875,0.18157732486724854,-0.9614582061767578,0.5649307370185852
1788093356135004000,0.14400390625,1.331408977508545,-0.4886026382446289,0.1306072175502777
1788093356145067300,0.1540673828125,-0.7821850776672363,-0.5197296142578125,0.04892386496067047
1788093356155130400,0.16413037109375,-1.2773325443267822,1.8028373718261719,-0.5241913199424744
1788093356165193500,0.174193359375,-0.2650214433670044,-0.7594995498657227,-0.03905634582042694
1788093356175256600,0.184256591796875,1.7001020908355713,-0.512059211730957,-1.0208503007888794
1788093356185319700,0.194319580078125,-0.40455400943756104,0.16356372833251953,-0.9038894176483154
1788093356195382800,0.2043828125,0.21838665008544922,0.06474018096923828,-0.11988115310668945
1788093356205446000,0.21444580078125,1.0950915813446045,0.6243476867675781,-0.20191681385040283
1788093356215509000,0.224509033203125,-2.622389316558838,-0.4719715118408203,-0.5575513243675232
1788093356225572000,0.234572021484375,-0.5554014444351196,1.6406259536743164,0.23139429092407227
1788093356235635200,0.24463525390625,-0.15164244174957275,-1.2806167602539062,0.8366758227348328
1788093356245698300,0.2546982421875,2.288137435913086,-0.0934133529663086,0.2764798700809479
1788093356255761400,0.264761474609375,-0.02518773078918457,-0.6805706024169922,0.04188457131385803
1788093356265824800,0.27482470703125,0.7074472904205322,0.9708719253540039,-0.041491538286209106
1788093356275887900,0.284887939453125,-0.5652602910995483,-0.30127429962158203,-0.04886797070503235
1788093356285951000,0.294950927734375,-0.24082231521606445,0.6555156707763672,0.4552454948425293
1788093356296014000,0.30501416015625,-1.9587141275405884,-0.029859542846679688,-0.23943379521369934
1788093356306077200,0.3150771484375,0.2775458097457886,0.2708282470703125,-0.161993145942688
1788093356316140300,0.325140380859375,1.7086536884307861,-0.39287662506103516,0.28574270009994507
1788093356326203400,0.335203369140625,0.535987377166748,-0.8917179107666016,0.2097943127155304
1788093356336266500,0.3452666015625,-0.12217426300048828,0.5942096710205078,-0.43385186791419983
1788093356346329600,0.35532958984375,-0.2688117027282715,0.028534889221191406,-0.568135142326355
1788093356356392700,0.365392822265625,-0.12109899520874023,0.63128662109375,-0.1972913146018982
1788093356366455800,0.375455810546875,-1.6383702754974365,-0.09959793090820312,0.1601063311100006
1788093356376519000,0.385518798828125,-0.4538140296936035,1.2626562118530273,-0.40399518609046936
1788093356386582300,0.395582275390625,-0.6868079900741577,-0.8951501846313477,0.022517502307891846
1788093356396645400,0.405645263671875,2.8999035358428955,-0.3712043762207031,-0.3916316330432892
1788093356406708500,0.41570849609375,0.5693020820617676,-0.9048328399658203,0.9823191165924072
1788093356416771300,0.425771240234375,0.2577342987060547,0.6028499603271484,0.09071460366249084
1788093356426834400,0.43583447265625,-1.1559154987335205,0.5013904571533203,0.6967426538467407
1788093356436897800,0.445897705078125,-1.2047854661941528,0.3761014938354492,0.2350078672170639
1788093356446961000,0.4559609375,-0.522518515586853,-0.19379329681396484,0.6306085586547852
1788093356457024000,0.46602392578125,-0.4817788600921631,-0.3172492980957031,0.6027692556381226
1788093356467087000,0.476087158203125,1.5774662494659424,1.1086006164550781,-0.5375059843063354
1788093356477150200,0.486150146484375,0.17107462882995605,-1.6481056213378906,0.5957656502723694
1788093356487213300,0.49621337890625,1.466559886932373,0.10445117950439453,-0.03749808669090271
1788093356497276400,0.5062763671875,-0.47333598136901855,-0.14169692993164062,0.2373855710029602
1788093356507339500,0.516339599609375,-0.07937264442443848,0.9224052429199219,-0.2823569178581238
1788093356517402600,0.526402587890625,-1.259639024734497,-0.09366893768310547,-0.22711995244026184
1788093356527465700,0.5364658203125,-0.6835712194442749,0.7405853271484375,-0.2499607503414154
1788093356537528800,0.54652880859375,-0.987553596496582,-0.3355989456176758,-0.02780306339263916
1788093356547592000,0.556592041015625,1.2608702182769775,1.163853645324707,-0.4629632830619812
1788093356557655300,0.5666552734375,-0.19942891597747803,-1.5205001831054688,0.8063955307006836
1788093356567718400,0.576718505859375,1.6836395263671875,-0.3338623046875,-0.06269267201423645
1788093356577781500,0.586781494140625,1.5339722633361816,-0.4412355422973633,0.6175346374511719
1788093356587844600,0.5968447265625,-0.23849916458129883,0.6216716766357422,0.14484798908233643
1788093356597907700,0.60690771484375,-1.9057694673538208,0.7100419998168945,-0.11360839009284973
1788093356607970800,0.616970703125,-1.0752673149108887,0.5920524597167969,-0.35142895579338074
1788093356618034000,0.627033935546875,0.518897294998169,-1.119471549987793,0.547966480255127
1788093356628097000,0.637096923828125,0.6393177509307861,-0.12002944946289062,-0.56778883934021
1788093356638160100,0.64716015625,0.6119256019592285,1.3325281143188477,-0.46658721566200256
1788093356648223200,0.65722314453125,-1.4808142185211182,-1.4548397064208984,0.44884008169174194
1788093356658286300,0.667286376953125,1.8685908317565918,0.23314285278320312,0.20740261673927307
1788093356668349400,0.677349365234375,0.45376110076904297,-0.5981359481811523,0.38539913296699524
1788093356678412500,0.68741259765625,0.8568973541259766,0.6432161331176758,-0.11066257953643799
1788093356688475600,0.6974755859375,-0.7117899656295776,0.10932064056396484,-0.2965107262134552
1788093356698538800,0.707538818359375,-1.4816268682479858,0.10017681121826172,-0.44903451204299927
1788093356708601900,0.717601806640625,-0.10736727714538574,0.41021728515625,-0.5291622877120972
1788093356718665000,0.7276650390625,-0.05285632610321045,0.1733694076538086,-0.17799299955368042
1788093356728728300,0.737728271484375,0.5359511375427246,-0.19235992431640625,-0.35703444480895996
1788093356738791400,0.74779150390625,0.6974549293518066,-0.9548654556274414,0.08506381511688232
1788093356748854500,0.7578544921875,1.2364387512207031,-0.47338104248046875,-0.4101767838001251
1788093356758917600,0.767917724609375,0.6129703521728516,0.2998056411743164,-0.4593316912651062
1788093356768980700,0.777980712890625,-1.6942529678344727,0.8020105361938477,-0.5357843637466431
1788093356789107000,0.79810693359375,-0.958240270614624,0.4427642822265625,0.9825713634490967
1788093356799170000,0.808170166015625,0.7696728706359863,-1.2132110595703125,1.8547178506851196
1788093356809233200,0.818233154296875,2.0169079303741455,-0.0803670883178711,1.1023216247558594
1788093356819296300,0.828296142578125,1.3771193027496338,0.6087818145751953,0.8057958483695984
1788093356829359400,0.838359375,-1.0758589506149292,-1.066110610961914,0.08457022905349731
1788093356839422500,0.84842236328125,1.0562019348144531,-0.3816709518432617,-0.37183424830436707
1788093356849485600,0.858485595703125,1.419212818145752,-0.0971994400024414,-0.8417627811431885
1788093356859548700,0.868548583984375,0.35481858253479004,0.2332916259765625,-1.3000547885894775
1788093356869611800,0.87861181640625,-1.6997733116149902,0.4163646697998047,-1.3003137111663818
1788093356879675000,0.8886748046875,-1.8123441934585571,1.0408658981323242,-1.182356357574463
1788093356889738000,0.898738037109375,-1.1467344760894775,0.08694839477539062,0.025060459971427917
1788093356899801000,0.908801025390625,0.7460179328918457,-0.35896968841552734,-0.011377200484275818
1788093356909864400,0.918864501953125,0.8026931285858154,0.1340007781982422,0.6407930850982666
1788093356919927600,0.928927490234375,0.2508687973022461,-0.40177059173583984,0.9072204232215881
1788093356929990700,0.93899072265625,0.4502987861633301,-0.608271598815918,1.4251832962036133
1788093356940053800,0.9490537109375,0.8893642425537109,-0.7300968170166016,1.436711072921753
1788093356950116900,0.959116943359375,1.1652631759643555,0.5464649200439453,0.7043278813362122
1788093356960180000,0.969179931640625,-0.553966760635376,0.6852426528930664,-0.052024438977241516
1788093356970243000,0.9792431640625,-2.179318904876709,0.39553070068359375,-0.5319187045097351
1788093356980306200,0.98930615234375,-1.2227585315704346,0.9428205490112305,-0.5184787511825562
1788093356990369300,0.999369384765625,0.5209035873413086,-1.0709943771362305,-0.054295092821121216
1788093357000432400,1.009432373046875,2.77609920501709,-0.5003166198730469,0.4774090051651001
1788093357010495500,1.01949560546875,0.07244038581848145,-0.3541231155395508,-0.059917062520980835
1788093357020558600,1.02955859375,-0.7934553623199463,1.3643598556518555,-0.8699222207069397
1788093357030621700,1.03962158203125,-2.6118617057800293,-0.8197717666625977,-0.07357022166252136
1788093357040684800,1.049684814453125,1.3782768249511719,-0.10315990447998047,0.28609728813171387
1788093357050748000,1.059747802734375,2.4823803901672363,-0.7473535537719727,0.5811015963554382
1788093357060811000,1.06981103515625,1.5903594493865967,-0.29384326934814453,0.1452292799949646
1788093357070874000,1.0798740234375,-1.442631721496582,0.8124818801879883,-0.42432618141174316
1788093357080937500,1.0899375,-2.721827507019043,1.622030258178711,-0.8566989898681641
1788093357091000600,1.10000048828125,-1.913397192955017,-0.26429176330566406,0.17623387277126312
1788093357101063700,1.110063720703125,1.1673979759216309,-0.39118289947509766,0.1039871796965599
1788093357111126500,1.12012646484375,1.7273242473602295,0.1612386703491211,0.10261610150337219
1788093357121189600,1.130189697265625,0.18564367294311523,-0.5579853057861328,0.3384326994419098
1788093357131253000,1.1402529296875,0.0431666374206543,-0.5349788665771484,0.21263833343982697
1788093357141316000,1.150316162109375,0.18703389167785645,-0.7333097457885742,0.3305197060108185
1788093357151379200,1.160379150390625,0.9667243957519531,0.5955820083618164,-0.0519726425409317
1788093357161442300,1.1704423828125,-0.45567524433135986,0.44208812713623047,-0.480521559715271
1788093357171505400,1.18050537109375,-1.831761121749878,0.532160758972168,-0.6283464431762695
1788093357181568500,1.190568603515625,-1.7083158493041992,0.5699892044067383,-0.27913209795951843
1788093357191631600,1.200631591796875,1.0835292339324951,-0.0006132125854492188,-0.11813434958457947
1788093357201694700,1.21069482421875,1.5708929300308228,-1.447871208190918,1.0386167764663696
1788093357211757800,1.2207578125,1.4431167840957642,-0.013020515441894531,0.17597071826457977
1788093357221821000,1.230821044921875,-0.9453277587890625,0.9830198287963867,-0.1532541662454605
1788093357231884000,1.240884033203125,-2.673713445663452,0.19978713989257812,-0.2576901912689209
1788093357241947100,1.250947021484375,-1.031087875366211,-0.9030656814575195,0.28548651933670044
1788093357252010200,1.26101025390625,2.087414264678955,-0.10646915435791016,0.23123043775558472
1788093357262073300,1.2710732421875,2.38625431060791,-0.582611083984375,0.38209864497184753
1788093357272136400,1.281136474609375,-0.1068429946899414,0.38718414306640625,0.08612060546875
1788093357282199600,1.291199462890625,-2.933689832687378,1.180283546447754,-0.32071131467819214
1788093357292262700,1.3012626953125,-2.6702189445495605,1.1858158111572266,-0.6438753604888916
1788093357302326000,1.311325927734375,0.021741151809692383,-0.9528894424438477,0.09687352180480957
1788093357312389000,1.32138916015625,2.613145589828491,-0.6653423309326172,-0.1540408730506897
1788093357322452200,1.3314521484375,2.3844778537750244,0.028102874755859375,0.11633244156837463
1788093357332515300,1.341515380859375,-0.19197380542755127,-0.6308393478393555,0.28949257731437683
1788093357342578400,1.351578369140625,-1.0758355855941772,-0.14400768280029297,0.0071190595626831055
1788093357352641500,1.3616416015625,-0.8805818557739258,-0.2519035339355469,0.2519642114639282
1788093357362704600,1.37170458984375,1.0662062168121338,0.42336273193359375,0.2002285271883011
1788093357372767700,1.381767822265625,0.10463070869445801,0.5423593521118164,0.15219520032405853
1788093357382830800,1.391830810546875,-1.871786117553711,0.5657215118408203,0.06373584270477295
1788093357392894000,1.40189404296875,-2.107839345932007,0.7699069976806641,0.22444404661655426
1788093357402957000,1.41195703125,0.5159199237823486,0.04219532012939453,0.4301198422908783
1788093357413020200,1.422020263671875,1.4144024848937988,-1.2846746444702148,0.38807642459869385
1788093357423083300,1.432083251953125,2.6477255821228027,-0.19011592864990234,0.28531473875045776
1788093357433146400,1.442146484375,-0.4125884771347046,-0.10499954223632812,-2.7420969009399414
1788093357443209500,1.45220947265625,-1.495884656906128,1.1996898651123047,-0.9993793964385986
1788093357453272600,1.4622724609375,-2.5314149856567383,-0.8139495849609375,0.9013327360153198
1788093357463335700,1.472335693359375,1.4244310855865479,-0.6420259475708008,1.830867886543274
1788093357473398800,1.482398681640625,3.3596794605255127,-0.4362926483154297,-1.1085301637649536
1788093357483462000,1.4924619140625,2.001936435699463,-0.0904693603515625,-1.6413723230361938
1788093357493525000,1.50252490234375,-1.4850153923034668,0.7259378433227539,-0.4885052740573883
1788093357503588000,1.512588134765625,-2.5507984161376953,1.6898479461669922,0.24414010345935822
1788093357513651200,1.522651123046875,-2.1394472122192383,-0.38446617126464844,0.8523836731910706
1788093357523714600,1.532714599609375,2.1229746341705322,-0.44773101806640625,0.36357495188713074
1788093357533777700,1.542777587890625,2.0913259983062744,-0.6067800521850586,-0.8228248357772827
1788093357543840800,1.5528408203125,0.15810418128967285,0.09724903106689453,0.5109165906906128
1788093357553903900,1.56290380859375,-0.1466381549835205,-0.4146270751953125,-0.8336948156356812
1788093357563966700,1.572966796875,-1.4822545051574707,-0.7701606750488281,-0.2592398524284363
1788093357574030000,1.583030029296875,1.519268274307251,0.1028738021850586,0.9823321104049683
1788093357584093200,1.59309326171875,0.8802739381790161,0.6232776641845703,-0.6780233979225159
1788093357594156300,1.60315625,-1.3713433742523193,0.434906005859375,-1.4434044361114502
1788093357604219400,1.613219482421875,-2.107616424560547,0.47730159759521484,-1.109239101409912
1788093357614282500,1.623282470703125,-0.8002490997314453,0.8428316116333008,-0.6011353731155396
1788093357624345600,1.633345703125,-0.04112958908081055,-0.5816287994384766,0.6664319634437561
1788093357634408700,1.64340869140625,1.397243618965149,-0.6345930099487305,2.3196680545806885
1788093357644471800,1.653471923828125,-0.27424442768096924,0.24050045013427734,1.938935399055481
1788093357654535000,1.663534912109375,-0.9591468572616577,1.2216424942016602,1.0068753957748413
1788093357664598000,1.673597900390625,-2.0546908378601074,-0.9706554412841797,0.5907347798347473
1788093357674661000,1.6836611328125,1.5801117420196533,-0.766326904296875,0.24235597252845764
1788093357684724200,1.69372412109375,3.388576030731201,-0.7203960418701172,-0.03993108868598938
1788093357694787300,1.703787353515625,2.253288507461548,-0.016752243041992188,-0.8168611526489258
1788093357704850400,1.713850341796875,-1.9429899454116821,0.7454662322998047,-1.4292649030685425
1788093357714913500,1.72391357421875,-3.094505786895752,1.9637165069580078,-2.094484567642212
1788093357724976600,1.7339765625,-2.6117656230926514,-0.2588357925415039,-1.3815288543701172
1788093357735039700,1.744039794921875,2.5932791233062744,-0.6705322265625,-1.0911142826080322
1788093357745103000,1.75410302734375,2.344736337661743,-0.7852754592895508,-0.3141172230243683
1788093357755166000,1.764166015625,0.8133835792541504,-0.24230003356933594,-0.6855901479721069
1788093357765229000,1.77422900390625,-0.5770707130432129,-0.12469959259033203,0.11087203770875931
1788093357775292200,1.784292236328125,-1.2603886127471924,-0.5670499801635742,0.9504243731498718
1788093357785355300,1.794355224609375,0.3990151882171631,0.018533706665039062,0.8230541348457336
1788093357795418600,1.804418701171875,1.1140575408935547,0.6988019943237305,0.5648790001869202
1788093357805481700,1.814481689453125,-0.6805586814880371,0.2675590515136719,0.7508568167686462
1788093357815544800,1.824544921875,-2.1243321895599365,0.5951414108276367,0.7498388290405273
1788093357825608000,1.83460791015625,-1.1686097383499146,0.21225643157958984,1.0777266025543213
1788093357835671000,1.844671142578125,2.1385536193847656,-0.1807241439819336,0.6962809562683105
1788093357845734100,1.854734130859375,1.6280765533447266,-1.9990720748901367,1.2106393575668335
1788093357855797200,1.86479736328125,1.6635513305664062,0.3577461242675781,-0.3761141300201416
1788093357865860400,1.8748603515625,-1.576042890548706,1.1563968658447266,-0.8962867259979248
1788093357875923500,1.88492333984375,-3.3746039867401123,0.14136028289794922,-1.2039599418640137
1788093357885986600,1.894986572265625,-0.9791057109832764,-0.525691032409668,-0.1529434621334076
1788093357896049700,1.905049560546875,3.008514881134033,-0.6925754547119141,0.6863551139831543
1788093357906112800,1.91511279296875,3.6685869693756104,-0.5641040802001953,0.5831109285354614
1788093357916176000,1.92517578125,0.15182995796203613,0.206268310546875,-0.07326856255531311
1788093357926239000,1.935239013671875,-3.2568628787994385,1.4994611740112305,-0.5077221989631653
1788093357936302000,1.945302001953125,-2.8015918731689453,1.417088508605957,-0.5384049415588379
1788093357946365200,1.955365234375,-0.2933756113052368,-1.099064826965332,0.702190637588501
1788093357956428300,1.96542822265625,2.281705617904663,-0.6940574645996094,0.43489664793014526
1788093357966491400,1.975491455078125,2.109494924545288,0.07358169555664062,0.5368930101394653
1788093357976554500,1.985554443359375,-0.17333745956420898,-0.6275320053100586,0.5718785524368286
1788093357986617600,1.99561767578125,-0.8922404050827026,-0.1973276138305664,-0.07026709616184235
1788093357996680700,2.0056806640625,-0.3961353302001953,-0.2918272018432617,0.07527972757816315
1788093358006743800,2.015743896484375,1.3825585842132568,0.6413202285766602,-0.1511063426733017
1788093358016807200,2.02580712890625,-0.10277044773101807,0.30211925506591797,-0.5526193380355835
1788093358026870000,2.0358701171875,-2.151531219482422,0.48607444763183594,-0.6265871524810791
1788093358036933000,2.04593310546875,-2.2816083431243896,1.0939292907714844,-0.14094308018684387
1788093358046996200,2.055996337890625,0.37878894805908203,-0.056120872497558594,-0.12756672501564026
1788093358057059300,2.066059326171875,1.7781643867492676,-1.607804298400879,0.7402287721633911
1788093358067122700,2.076122802734375,1.8312790393829346,-0.13195037841796875,0.1857818067073822
1788093358077185800,2.086185791015625,-0.08024406433105469,0.757441520690918,-0.1327650249004364
1788093358087249000,2.096248779296875,-2.204115867614746,-0.2630043029785156,-0.05037909746170044
1788093358097312000,2.10631201171875,-0.4327051639556885,-0.7033538818359375,0.1692449152469635
1788093358107374800,2.116374755859375,2.420992136001587,-0.3394355773925781,0.39664414525032043
1788093358117438200,2.126438232421875,2.5132620334625244,-0.27228450775146484,0.23892328143119812
1788093358127501300,2.136501220703125,-0.5511977672576904,0.3981494903564453,-0.3248120844364166
1788093358137564400,2.146564453125,-2.744523286819458,1.4606637954711914,-0.6221978664398193
1788093358147627500,2.15662744140625,-3.19594669342041,0.651890754699707,-0.8520668745040894
1788093358157690600,2.166690673828125,0.7713882923126221,-0.4966411590576172,-0.5525994300842285
1788093358167753700,2.176753662109375,1.7192654609680176,-0.8907642364501953,-0.175591379404068
1788093358177816800,2.18681689453125,2.0118253231048584,0.05765819549560547,-0.26459911465644836
1788093358187880000,2.1968798828125,0.059178829193115234,-0.5178442001342773,0.6720763444900513
1788093358197943000,2.206943115234375,-0.8236194849014282,-0.49260520935058594,0.8923251628875732
1788093358208006100,2.217006103515625,0.08200931549072266,-0.25214481353759766,0.8810093998908997
1788093358218069200,2.2270693359375,0.9727749824523926,0.7239084243774414,0.13773679733276367
1788093358228132400,2.23713232421875,-0.6351331472396851,0.5706682205200195,-1.516113042831421
1788093358238195500,2.247195556640625,-2.164595127105713,0.4318122863769531,-1.3123196363449097
1788093358248258600,2.257258544921875,-1.3986114263534546,0.47181129455566406,0.25873005390167236
1788093358258321700,2.26732177734375,1.6129636764526367,0.2538719177246094,0.5910202264785767
1788093358268384800,2.277384765625,0.8500754833221436,-1.8349952697753906,1.058717966079712
1788093358278447900,2.28744775390625,1.4954566955566406,0.4111013412475586,-0.4999741017818451
1788093358288511000,2.297510986328125,-0.7402251958847046,0.969294548034668,-0.845887303352356
1788093358298574000,2.307573974609375,-1.6610562801361084,-0.5825824737548828,0.4248471260070801
1788093358308637200,2.31763720703125,-0.45237791538238525,-0.7096443176269531,1.141789197921753
1788093358318700300,2.3277001953125,2.0842857360839844,-0.00807952880859375,-0.09814539551734924
1788093358328763400,2.337763427734375,1.9378113746643066,-0.15855789184570312,-1.7970349788665771
1788093358338826800,2.34782666015625,-0.3724241256713867,0.26441287994384766,-1.4571473598480225
1788093358348889600,2.3578896484375,-1.666359543800354,1.1593589782714844,-0.012351363897323608
1788093358358952700,2.36795263671875,-1.7374343872070312,-0.0576934814453125,0.7902002334594727
1788093358369015800,2.378015869140625,1.1979613304138184,-0.052280426025390625,0.6997637748718262
1788093358379079000,2.388078857421875,0.9869067668914795,-0.7483463287353516,-0.622128963470459
1788093358389142300,2.398142333984375,1.0009536743164062,-0.16106224060058594,-0.025406748056411743
1788093358399205400,2.408205322265625,0.024617671966552734,-0.27793025970458984,-0.045802950859069824
1788093358409268500,2.4182685546875,-0.3844900131225586,-0.8292093276977539,0.6395896673202515
1788093358419331300,2.428331298828125,-0.08761441707611084,-0.061244964599609375,-0.07045912742614746
1788093358429394400,2.43839453125,2.129920482635498,0.6585416793823242,-0.04162684082984924
1788093358439457800,2.448457763671875,-1.542771577835083,0.46637439727783203,-1.9772372245788574
1788093358449521000,2.45852099609375,-2.205688953399658,0.375732421875,-0.4462601840496063
1788093358459584000,2.468583984375,-0.9392037391662598,0.6285495758056641,0.6661146879196167
1788093358469647000,2.478647216796875,0.631061315536499,-0.33843231201171875,-0.25314798951148987
1788093358479710200,2.488710205078125,1.6416454315185547,-0.9692955017089844,2.1757540702819824
1788093358489773300,2.498773193359375,0.2559983730316162,0.14537715911865234,1.4895979166030884
1788093358499836400,2.50883642578125,-1.4321173429489136,1.3802690505981445,0.33252453804016113
1788093358509899500,2.5188994140625,-2.5591137409210205,-0.5349035263061523,0.36720943450927734
1788093358519962600,2.528962646484375,0.7563621997833252,-0.5849170684814453,0.5002653002738953
1788093358530025700,2.539025634765625,2.92117977142334,-0.5676774978637695,-1.1785281896591187
1788093358540088800,2.5490888671875,2.1060376167297363,0.08374977111816406,-2.1586318016052246
1788093358550152000,2.55915185546875,-1.6015779972076416,0.5675516128540039,-1.666715383529663
1788093358560215000,2.569215087890625,-2.8912453651428223,1.5331668853759766,-0.2732320725917816
1788093358570278100,2.579278076171875,-2.771487236022949,-0.004227638244628906,0.5952160358428955
1788093358580341200,2.58934130859375,1.5468287467956543,-0.23807716369628906,0.7574480175971985
1788093358590404400,2.599404296875,2.020655632019043,-0.9055976867675781,-0.5578107833862305
1788093358600467500,2.609467529296875,1.5365614891052246,-0.2210683822631836,-0.4222351014614105
1788093358610530600,2.619530517578125,0.3448793888092041,-0.37597179412841797,0.2311857044696808
1788093358620593700,2.62959375,-0.6560441255569458,-0.7033901214599609,0.6714067459106445
1788093358630656800,2.63965673828125,0.6057274341583252,-0.07707595825195312,0.5774379968643188
1788093358640720000,2.649719970703125,0.9521572589874268,0.4864530563354492,-0.7542018890380859
1788093358650783000,2.659782958984375,-0.7552639245986938,0.29711437225341797,-1.0527981519699097
1788093358660846000,2.66984619140625,-2.241929531097412,0.46342945098876953,-0.9184570908546448
1788093358670909200,2.6799091796875,-1.4438419342041016,0.5622987747192383,-1.0054837465286255
1788093358680972300,2.68997216796875,1.7670040130615234,-0.11974430084228516,-0.9528257846832275
1788093358691035400,2.700035400390625,1.3775913715362549,-2.093662738800049,0.843116044998169
1788093358701098500,2.710098388671875,1.4190576076507568,0.4533214569091797,-0.18790382146835327
1788093358711161600,2.72016162109375,-1.358888030052185,1.3279447555541992,-0.15041308104991913
1788093358721224700,2.730224609375,-3.058303117752075,-0.45781421661376953,-0.17885296046733856
1788093358731287800,2.740287841796875,-0.23351359367370605,-0.5768957138061523,0.9931378364562988
1788093358741351000,2.750350830078125,2.3834283351898193,-0.5062665939331055,1.4883136749267578
1788093358751414000,2.7604140625,3.1704905033111572,-0.19576549530029297,1.443288803100586
1788093358761477400,2.770477294921875,-0.26199376583099365,0.13339519500732422,0.6439807415008545
1788093358771540500,2.78054052734375,-2.158010244369507,1.9344806671142578,-0.5524599552154541
1788093358781603300,2.790603271484375,-3.2640950679779053,0.27900123596191406,-0.8229655027389526
1788093358791666400,2.80066650390625,1.3691353797912598,-0.2590007781982422,-0.7723824977874756
1788093358801729500,2.8107294921875,1.6908025741577148,-1.0558366775512695,-0.19621506333351135
1788093358811793000,2.82079296875,2.862877607345581,-0.4474678039550781,-0.45781680941581726
1788093358821856000,2.83085595703125,0.09046077728271484,-0.4962301254272461,-0.21757933497428894
1788093358831919000,2.840919189453125,-1.792504906654358,-0.27268409729003906,0.5160232782363892
1788093358841982200,2.850982177734375,-0.9596658945083618,0.3822288513183594,1.2730833292007446
1788093358852045000,2.861045166015625,0.09422874450683594,1.201951026916504,1.5454413890838623
1788093358862108400,2.8711083984375,-1.157306432723999,0.2687082290649414,-0.04318562150001526
1788093358872171500,2.881171630859375,-1.2073031663894653,0.22326946258544922,-0.3956875801086426
1788093358882234600,2.891234619140625,1.3946003913879395,0.6714181900024414,0.4017036557197571
1788093358892297700,2.901297607421875,0.9742655754089355,-2.093874931335449,1.3785901069641113
1788093358902360800,2.91136083984375,2.711113929748535,-0.06682586669921875,0.8397437930107117
1788093358912424000,2.921423828125,-1.0984543561935425,0.39438438415527344,0.4502197504043579
1788093358922487000,2.931487060546875,-2.470719575881958,0.6501502990722656,-1.0046348571777344
1788093358932550100,2.941550048828125,-1.6095409393310547,-0.8442068099975586,-0.8150782585144043
1788093358942613200,2.95161328125,1.7298510074615479,-0.25263500213623047,-0.40359175205230713
1788093358952676400,2.96167626953125,2.6421966552734375,-0.6112823486328125,-0.24075469374656677
1788093358962739500,2.971739501953125,0.8525352478027344,0.32387256622314453,-0.7144681811332703
1788093358972802600,2.981802490234375,-1.8664542436599731,1.2641096115112305,-1.0621660947799683
1788093358982865700,2.99186572265625,-3.3798468112945557,0.9177827835083008,-1.2972005605697632
1788093358992928800,3.0019287109375,0.10075032711029053,0.15342330932617188,-0.4312080144882202
1788093359002991900,3.011991943359375,0.6449533700942993,-0.9742670059204102,0.0061574578285217285
1788093359013055000,3.022054931640625,2.0303902626037598,0.19964313507080078,0.029006153345108032
1788093359023118000,3.0321181640625,0.31265735626220703,-0.8895120620727539,0.9765980243682861
1788093359033181200,3.04218115234375,0.4281289577484131,-0.7753734588623047,0.9398066401481628
1788093359043244300,3.052244384765625,0.774206280708313,-0.35875606536865234,0.8264685869216919
1788093359053307400,3.062307373046875,0.549297571182251,0.929408073425293,0.2602831721305847
1788093359063370500,3.07237060546875,-1.329383134841919,0.49826717376708984,-0.12241625785827637
1788093359073433600,3.08243359375,-2.6517269611358643,0.8031101226806641,-0.6476254463195801
1788093359083496700,3.09249658203125,-1.426349401473999,0.7711277008056641,-0.5199282169342041
1788093359093559800,3.102559814453125,0.8761019706726074,-0.7551469802856445,-0.3622456192970276
1788093359103623000,3.112622802734375,2.8874878883361816,-1.1501445770263672,0.5895283818244934
1788093359113686000,3.12268603515625,0.9989895820617676,-0.16523075103759766,0.4357244074344635
1788093359123749000,3.1327490234375,-0.7699236869812012,1.100198745727539,-0.17773276567459106
1788093359133812200,3.142812255859375,-2.794900894165039,-0.6556129455566406,0.48409178853034973
1788093359143875300,3.152875244140625,1.0243134498596191,-0.4846372604370117,0.4590328335762024
1788093359153938400,3.1629384765625,2.965653896331787,-0.9013385772705078,0.14589762687683105
1788093359164001500,3.17300146484375,2.5674123764038086,-0.08936119079589844,-0.6003615856170654
1788093359174064600,3.183064697265625,-1.7161155939102173,0.6679706573486328,-0.7369426488876343
1788093359184128000,3.1931279296875,-3.224091053009033,2.161151885986328,-1.4180309772491455
1788093359194191000,3.203191162109375,-3.7166872024536133,-0.20446014404296875,-0.6253984570503235
1788093359204254200,3.213254150390625,1.4101593494415283,-0.10738277435302734,-0.7964138984680176
1788093359214317000,3.223317138671875,1.5646249055862427,-0.5784168243408203,-0.02288055419921875
1788093359224380200,3.233380126953125,1.7368704080581665,-0.27202701568603516,-0.0674809068441391
1788093359234443500,3.243443603515625,0.5750669240951538,-0.8277063369750977,0.7551888227462769
1788093359244506600,3.253506591796875,0.19180679321289062,-0.8067779541015625,1.0281240940093994
1788093359254569700,3.26356982421875,0.6943020820617676,0.25048255920410156,0.7012842893600464
1788093359264632800,3.2736328125,0.10424411296844482,0.9138698577880859,0.13143564760684967
1788093359274696000,3.283696044921875,-1.7532001733779907,0.5471611022949219,-0.2613663971424103
1788093359284759000,3.293759033203125,-2.345093011856079,0.5962438583374023,-0.38268762826919556
1788093359294822100,3.303822265625,0.5402654409408569,0.7547597885131836,-0.47151362895965576
1788093359304885200,3.31388525390625,0.6526944637298584,-1.8458423614501953,0.004257068037986755
1788093359314948400,3.3239482421875,3.0985770225524902,-0.18406200408935547,0.07504989206790924
1788093359325011500,3.334011474609375,-1.1697999238967896,0.0766000747680664,0.4226990342140198
1788093359335074600,3.344074462890625,-1.2893273830413818,1.3143653869628906,-0.42469432950019836
1788093359345137700,3.3541376953125,-2.1175596714019775,-1.345015525817871,0.700017511844635
1788093359355200800,3.36420068359375,2.634629964828491,-0.27339935302734375,0.6725522875785828
1788093359365264000,3.374263916015625,2.8753490447998047,-0.7392768859863281,0.476595401763916
1788093359375327000,3.384326904296875,0.9807573556900024,0.05190849304199219,0.13921496272087097
1788093359385390000,3.39439013671875,-2.2770497798919678,1.2418794631958008,-0.01942792534828186
1788093359395453200,3.404453125,-3.485811710357666,1.4417638778686523,-0.5860801935195923
1788093359405516300,3.414516357421875,-0.6210497617721558,0.10607624053955078,-0.10183671116828918
1788093359415579400,3.424579345703125,0.43755483627319336,-0.8562650680541992,-0.43971383571624756
1788093359425642500,3.434642578125,1.9046584367752075,0.2803182601928711,-0.7284466028213501
1788093359435705600,3.44470556640625,0.44659531116485596,-0.8314552307128906,-0.16739661991596222
1788093359445768700,3.454768798828125,0.3931194543838501,-0.8259449005126953,-0.10975286364555359
1788093359455832000,3.46483203125,0.5767433643341064,-0.51873779296875,0.06323520839214325
1788093359465895000,3.47489501953125,0.8383898735046387,1.0218887329101562,-0.0640406608581543
1788093359475958000,3.4849580078125,-0.9437798261642456,0.33255767822265625,0.259369432926178
1788093359486021000,3.495021240234375,-2.290179491043091,0.5085716247558594,0.04978047311306
1788093359496084200,3.505084228515625,-0.8285019397735596,0.8137140274047852,0.18176643550395966
1788093359506147600,3.515147705078125,-0.32247304916381836,-1.1125612258911133,0.5585744976997375
1788093359516210700,3.525210693359375,2.433877468109131,0.009747505187988281,0.8552328944206238
1788093359526273800,3.535273681640625,0.023926377296447754,-0.24820995330810547,0.19355669617652893
1788093359536337000,3.5453369140625,-0.1751112937927246,1.2307872772216797,-0.8465828895568848
1788093359546399700,3.555399658203125,-2.105201482772827,-1.198531150817871,0.34655600786209106
1788093359556463000,3.565463134765625,2.3420701026916504,-0.3861989974975586,0.2657533586025238
1788093359566526200,3.575526123046875,3.2916269302368164,-1.0608835220336914,0.2620251774787903
1788093359576589300,3.58558935546875,2.2719368934631348,-0.19384479522705078,-0.5851746201515198
1788093359586652400,3.59565234375,-2.153092622756958,0.809107780456543,-0.5076041221618652
1788093359596715500,3.605715576171875,-3.661339521408081,2.199557304382324,-1.2754430770874023
1788093359606778600,3.615778564453125,-3.263960361480713,-0.2142505645751953,-0.22944441437721252
1788093359616841700,3.625841796875,0.13369369506835938,-0.1249227523803711,-0.8014364242553711
1788093359626904800,3.63590478515625,1.2897409200668335,0.04108905792236328,-0.2887347936630249
1788093359636968000,3.645968017578125,1.0989090204238892,-0.6773824691772461,0.246665820479393
1788093359647031000,3.656031005859375,1.489012598991394,-1.0199823379516602,0.6109373569488525
1788093359657094100,3.66609423828125,1.3365105390548706,-0.9848947525024414,0.8542371988296509
1788093359667157200,3.6761572265625,1.3436331748962402,0.7254390716552734,0.3857654333114624
1788093359677220400,3.686220458984375,-1.1872037649154663,0.628657341003418,0.09366379678249359
1788093359697346600,3.7063466796875,-2.208698034286499,0.7084627151489258,-0.35168135166168213
1788093359707409700,3.71640966796875,1.0651930570602417,-0.0026197433471679688,-0.7678643465042114
1788093359717472800,3.72647265625,2.007399559020996,-1.6559805870056152,0.8108919858932495
1788093359727536000,3.7365361328125,1.680509090423584,-0.005818367004394531,0.24109385907649994
1788093359737599000,3.746598876953125,-0.4416391849517822,1.1342363357543945,0.43891721963882446
1788093359747662000,3.756662109375,-3.0511443614959717,-0.8524036407470703,0.926002025604248
1788093359757725200,3.76672509765625,0.4795951843261719,-0.32619476318359375,0.3679431676864624
1788093359767788300,3.776788330078125,2.4241909980773926,-0.5853729248046875,0.3542698919773102
1788093359777851600,3.7868515625,2.528869152069092,-0.177276611328125,-0.41475909948349
1788093359787914800,3.796914794921875,-0.9204046726226807,0.4379091262817383,-0.5070464015007019
1788093359797977900,3.806977783203125,-2.2764108180999756,1.892928123474121,-1.0030758380889893
1788093359808041000,3.817041015625,-3.1481399536132812,0.101593017578125,-0.16877660155296326
1788093359818104000,3.82710400390625,0.5271637439727783,-0.12375068664550781,-0.7304168939590454
1788093359828167200,3.837167236328125,1.3372327089309692,-0.0949087142944336,0.1742735207080841
1788093359838230300,3.847230224609375,1.0760679244995117,-0.7272377014160156,0.4730672240257263
1788093359848293400,3.85729345703125,0.9190163612365723,-0.8739786148071289,0.5292648673057556
1788093359858356500,3.8673564453125,0.9918340444564819,-0.8820676803588867,0.6028294563293457
1788093359868419600,3.877419677734375,0.9016053676605225,0.46491432189941406,0.020042255520820618
1788093359878482700,3.887482666015625,-0.5154727697372437,1.0325021743774414,-0.43820345401763916
1788093359888545800,3.8975458984375,-2.596132278442383,0.5961151123046875,-0.5591942667961121
1788093359898609000,3.90760888671875,-2.021103858947754,0.6415948867797852,-0.5731683969497681
1788093359908672000,3.917672119140625,1.1312274932861328,-0.14647483825683594,-0.5358237028121948
1788093359918735000,3.927735107421875,2.295593500137329,-1.6495780944824219,0.7471466660499573
1788093359928798200,3.937798095703125,1.6505123376846313,-0.1722259521484375,-0.002816244959831238
1788093359938861300,3.947861328125,-0.7092616558074951,1.147420883178711,0.06223618984222412
1788093359948924700,3.957924560546875,-3.17911434173584,-0.5360431671142578,0.4482361078262329
1788093359958987800,3.96798779296875,0.2739980220794678,-0.2671804428100586,0.21493974328041077
1788093359969051000,3.97805078125,2.6893975734710693,-0.7437496185302734,0.6058257818222046
1788093359979114000,3.988114013671875,3.0628604888916016,-0.37862491607666016,-0.04952627420425415
1788093359989177000,3.998177001953125,-0.34392380714416504,0.34573936462402344,-0.25654691457748413
1788093359999240200,4.008240234375,-2.622281074523926,1.8484182357788086,-0.6506789922714233
1788093360009303300,4.01830322265625,-3.9450292587280273,0.10397624969482422,-0.3205603063106537
1788093360019366400,4.028366455078125,0.827049970626831,0.07900238037109375,-0.7356464862823486
1788093360029429500,4.038429443359375,1.5576462745666504,-0.44995880126953125,0.2634803354740143
1788093360039492600,4.04849267578125,1.6942532062530518,-0.5829486846923828,-0.3028624653816223
1788093360049555700,4.0585556640625,1.1569483280181885,-0.6732635498046875,0.15801161527633667
1788093360059618800,4.068618896484375,0.0030617713928222656,-1.097879409790039,0.6512095332145691
1788093360069682000,4.078681884765625,0.767409086227417,0.4735527038574219,-0.09833061695098877
1788093360079745300,4.088745361328125,-0.43664824962615967,0.8320331573486328,-0.1989809274673462
1788093360089808400,4.098808349609375,-1.8389408588409424,0.4801483154296875,-0.45461955666542053
1788093360099871500,4.10887158203125,-2.224987030029297,0.7281818389892578,-0.7141927480697632
1788093360109934600,4.1189345703125,1.2791123390197754,0.8596944808959961,-0.830973207950592
1788093360119997700,4.128997802734375,0.6112204790115356,-2.419889450073242,0.6650918126106262
1788093360130060800,4.139060791015625,3.1357154846191406,0.2225503921508789,-0.17492270469665527
1788093360140124000,4.1491240234375,-0.9474598169326782,0.5290164947509766,0.6183674335479736
1788093360150187300,4.159187255859375,-2.648524522781372,0.10645675659179688,0.11252371966838837
1788093360160250400,4.16925048828125,-0.8039096593856812,-0.7107229232788086,0.6089682579040527
1788093360170313500,4.1793134765625,2.653218984603882,-0.5902624130249023,0.5531558990478516
1788093360180376600,4.18937646484375,3.1843175888061523,-0.6354265213012695,0.1348290741443634
1788093360190439700,4.199439697265625,0.3566911220550537,0.16837501525878906,-0.3013418912887573
1788093360200502800,4.209502685546875,-2.247854232788086,1.7951431274414062,-0.7172281742095947
1788093360210566000,4.21956591796875,-4.050087928771973,0.5498542785644531,-0.7208038568496704
1788093360220629200,4.229629150390625,0.6173645257949829,0.3912067413330078,-0.7572894096374512
1788093360230692400,4.2396923828125,0.7041126489639282,-0.8342800140380859,0.1850310117006302
1788093360240755500,4.24975537109375,1.9166542291641235,-0.27217578887939453,-0.43965664505958557
1788093360250818600,4.259818603515625,1.0087352991104126,-0.7739658355712891,0.37245434522628784
1788093360260881700,4.269881591796875,0.5493721961975098,-1.0240106582641602,0.7561299800872803
1788093360270945000,4.279945068359375,0.472728967666626,0.11786079406738281,0.2439338117837906
1788093360281008000,4.290008056640625,-0.08711910247802734,1.302347183227539,-0.35245785117149353
1788093360291071200,4.3000712890625,-2.1743006706237793,0.37220001220703125,-0.44152870774269104
1788093360301134300,4.31013427734375,-2.0543007850646973,0.7130489349365234,-0.7147592306137085
1788093360311197400,4.320197509765625,1.2270865440368652,0.5859394073486328,-0.6953949332237244
1788093360321260800,4.3302607421875,1.247061014175415,-2.1354899406433105,0.6787158250808716
1788093360371576600,4.38057666015625,2.746084451675415,-0.39108848571777344,0.24893850088119507
1788093360381639700,4.3906396484375,2.938342571258545,-0.7347879409790039,0.08228200674057007
1788093360391702800,4.400702880859375,0.4774608612060547,0.23473167419433594,-0.5026109218597412
1788093360401766000,4.410765869140625,-2.5297794342041016,1.5700654983520508,-0.7037099003791809
1788093360479033600,4.48803369140625,1.0235466957092285,0.6135444641113281,0.32113590836524963
1788093360489099800,4.498099853515625,-0.49777960777282715,0.7425594329833984,0.11399704217910767
1788093360499188200,4.508188232421875,-2.035506248474121,0.5010957717895508,-0.19359338283538818
1788093360519338800,4.5283388671875,1.5661884546279907,0.3064842224121094,-0.5893443822860718
1788093360529552600,4.538552734375,1.782999873161316,-1.755263328552246,-0.05870300531387329
1788093360539766500,4.5487666015625,2.9765992164611816,-0.8303041458129883,-0.06732550263404846
1788093360549980400,4.55898046875,0.4296773672103882,0.16268539428710938,0.09061139822006226
1788093360560244500,4.569244384765625,-1.8226219415664673,0.7599916458129883,-0.20413023233413696
1788093360580722700,4.58972265625,1.383018970489502,-0.4758796691894531,0.4438914656639099
1788093360590922800,4.5999228515625,3.1237292289733887,-0.7522172927856445,0.5609464049339294
1788093360601052700,4.610052734375,2.097013473510742,-0.3161430358886719,0.09877093136310577
1788093360611115800,4.62011572265625,-1.0521941184997559,0.7283868789672852,-0.20315149426460266
1788093360621204200,4.630204345703125,-2.8644356727600098,1.3330297470092773,-0.5477391481399536
1788093360641355000,4.65035498046875,1.1939183473587036,-0.5437803268432617,-0.4024600684642792
1788093360651594000,4.660593994140625,2.575561285018921,-0.43923282623291016,-0.20350275933742523
1788093360661807900,4.670807861328125,1.6185487508773804,-0.7093820571899414,0.13159161806106567
1788093360672072000,4.681072021484375,0.5486468076705933,-0.703639030456543,0.2493245154619217
1788093360682260700,4.6912607421875,0.1247178316116333,-0.45061397552490234,0.2519485056400299
1788093360702738700,4.71173876953125,-0.4345278739929199,0.501835823059082,-0.2559139132499695
1788093360713002800,4.722002685546875,-1.8162846565246582,0.5678558349609375,-0.6722332835197449
1788093360723216600,4.732216552734375,-1.7313365936279297,0.5807857513427734,-0.4462704062461853
1788093360733229000,4.74222900390625,0.9379777908325195,0.09415531158447266,-0.2831285893917084
1788093360743317000,4.75231689453125,1.8270680904388428,-1.472193717956543,0.5521285533905029
1788093360753531000,4.76253076171875,2.1045656204223633,-0.3842144012451172,0.4968143701553345
1788093360763795200,4.772795166015625,-0.5262438058853149,0.6750335693359375,0.4807150065898895
1788093360784273200,4.793273193359375,-0.9190770387649536,-0.5359249114990234,0.3848903477191925
1788093360794487000,4.803487060546875,2.5990147590637207,-0.6442251205444336,0.32528966665267944
1788093360804701000,4.813700927734375,3.4491424560546875,-0.7373733520507812,0.08630688488483429
1788093360814892000,4.82389208984375,0.8891563415527344,0.12989234924316406,-0.384650856256485
1788093360824959200,4.833959228515625,-2.274070978164673,1.3281402587890625,-0.4968962073326111
1788093360845085700,4.854085693359375,-0.7716299295425415,0.022369384765625,-0.377920925617218
1788093360855149000,4.864149169921875,1.5406345129013062,-0.7146186828613281,-0.1123708039522171
1788093360865312800,4.874312744140625,2.712690830230713,-0.48687171936035156,-0.20120733976364136
1788093360875425800,4.88442578125,1.846591591835022,-0.8424863815307617,0.14293068647384644
1788093360885438200,4.894438232421875,0.8236805200576782,-0.9093723297119141,0.5910153388977051
1788093360895652000,4.904652099609375,0.7264856100082397,-0.3438081741333008,0.6657569408416748
1788093360905916200,4.914916259765625,0.3846784830093384,0.7347888946533203,0.41346240043640137
1788093360916180500,4.925180419921875,-1.5047667026519775,0.7579050064086914,0.4011625647544861
1788093360926394400,4.935394287109375,-2.9151058197021484,0.9097833633422852,0.1587328463792801
1788093360936608300,4.945608154296875,-1.3826701641082764,0.6308069229125977,-0.10192832350730896
1788093360946864000,4.955864013671875,1.7125017642974854,-0.7346706390380859,0.09233079850673676
1788093360957038800,4.966038818359375,3.4364490509033203,-1.7014164924621582,0.29387447237968445
1788093360977341200,4.986341064453125,-0.3969346284866333,0.7973155975341797,-0.6499106884002686
1788093360987303200,4.99630322265625,-3.0920605659484863,0.12433338165283203,-0.387444406747818
1788093360997467000,5.006466796875,-1.1306838989257812,-0.19884014129638672,-0.488111674785614
1788093361007680800,5.0166806640625,2.5856308937072754,-0.7409830093383789,-0.08988672494888306
1788093361017894700,5.026894775390625,3.873595714569092,-0.6624908447265625,-0.056008487939834595
1788093361028158700,5.03715869140625,0.6163047552108765,-0.02561664581298828,-0.19878217577934265
1788093361048636700,5.05763671875,-3.873997211456299,0.707148551940918,0.24269160628318787
1788093361058884900,5.067884765625,-0.45326733589172363,-0.0049190521240234375,0.6516208052635193
1788093361068993000,5.077992919921875,1.6175285577774048,-0.5406475067138672,1.3263181447982788
1788093361079106600,5.0881064453125,2.2596583366394043,-0.38496971130371094,0.6158502101898193
1788093361089371000,5.098370849609375,1.5244899988174438,-0.960627555847168,-0.010701924562454224
1788093361099584500,5.10858447265625,0.716792106628418,-0.9047574996948242,-0.36885830760002136
1788093361109848800,5.118848876953125,0.9384229183197021,-0.04504585266113281,-1.2104930877685547
1788093361119911700,5.12891162109375,0.31519293785095215,0.5902719497680664,-1.1747735738754272
1788093361130100500,5.1391005859375,-1.5013238191604614,0.7891683578491211,-0.7664123773574829
1788093361140238800,5.14923876953125,-2.8778648376464844,0.9687309265136719,-0.654199481010437
1788093361150352100,5.15935205078125,-1.018088459968567,0.5516796112060547,-0.3055313229560852
1788093361170830000,5.179830078125,3.5871975421905518,-1.6545677185058594,0.6303722262382507
1788093361180946700,5.18994677734375,2.2300949096679688,-0.3235759735107422,0.19354091584682465
1788093361191160600,5.20016064453125,-1.0231229066848755,0.913177490234375,0.03489294648170471
1788093361201223400,5.210223388671875,-3.768376588821411,0.32952117919921875,0.17169919610023499
1788093361211286300,5.220286376953125,-1.4920971393585205,-0.1749124526977539,0.11989206075668335
1788093361221500000,5.2305,2.875049114227295,-0.7831735610961914,0.34752795100212097
1788093361231764200,5.24076416015625,4.335228443145752,-0.7567548751831055,0.15658965706825256
1788093361252242200,5.2612421875,-2.9001290798187256,1.7354001998901367,-0.5379616022109985
1788093361262431000,5.271430908203125,-4.246342658996582,0.6802186965942383,0.04251283407211304
1788093361272684500,5.2816845703125,-0.7801882028579712,-0.11379241943359375,0.32196900248527527
1788093361282837500,5.29183740234375,1.625174880027771,-0.5569210052490234,0.721314013004303
1788093361302964000,5.3119638671875,1.348315715789795,-0.7594099044799805,0.6980738043785095
1788093361313027300,5.32202734375,0.021600842475891113,-0.7650365829467773,0.19897468388080597
1788093361323241200,5.3322412109375,0.16167259216308594,-0.1924276351928711,-0.6336578130722046
1788093361333253600,5.342253662109375,0.5910650491714478,0.5734405517578125,-1.768198013305664
1788093361343366700,5.35236669921875,-0.4148368835449219,0.7514705657958984,-1.7631765604019165
1788093361353606000,5.36260595703125,-1.6028488874435425,0.5151538848876953,-0.6759017109870911
1788093361363870000,5.372869873046875,-0.7373627424240112,0.16027355194091797,0.0410587340593338
1788093361384348000,5.393347900390625,2.8604319095611572,-1.9198813438415527,0.9249197840690613
1788093361394561800,5.403561767578125,2.8181371688842773,-0.41592979431152344,0.24332904815673828
1788093361404758300,5.41375830078125,-0.7334843873977661,0.880467414855957,0.28760862350463867
1788093361414918400,5.42391845703125,-3.2768778800964355,0.5404033660888672,0.1342199444770813
1788093361425006600,5.434006591796875,-2.1690473556518555,-0.2870950698852539,0.40857434272766113
1788093361445157400,5.454157470703125,4.788942337036133,-1.0176763534545898,0.42930087447166443
1788093361455396400,5.464396240234375,2.2376317977905273,-0.24771881103515625,-0.10912689566612244
1788093361465660400,5.474660400390625,-2.172339916229248,1.2530765533447266,-0.30738934874534607
1788093361475874300,5.484874267578125,-3.579333782196045,1.3478374481201172,0.17831867933273315
1788093361486138600,5.495138671875,-1.5850006341934204,-0.25048255920410156,0.5220211744308472
1788093361496352500,5.5053525390625,1.552526831626892,-0.5590448379516602,0.24142149090766907
1788093361516809500,5.5258095703125,1.674521565437317,-0.5578670501708984,0.07116308808326721
1788093361526872600,5.53587255859375,-0.12769651412963867,-0.3776073455810547,-0.17828220129013062
1788093361536936000,5.54593603515625,-0.38283324241638184,-0.38425350189208984,-0.46764904260635376
1788093361546999600,5.55599951171875,0.8223569393157959,0.17984580993652344,-0.6074010729789734
1788093361557063000,5.56606298828125,0.4473574161529541,0.5169210433959961,-0.4730580151081085
1788093361577365200,5.586365234375,-2.4688777923583984,0.7788896560668945,-0.03541097044944763
1788093361587327200,5.5963271484375,-0.6160868406295776,0.22932147979736328,0.3057120740413666
1788093361597490700,5.60649072265625,2.348402976989746,-0.9161167144775391,0.21428823471069336
1788093361607629000,5.616629150390625,3.6310129165649414,-1.3212127685546875,0.26091456413269043
1788093361617742300,5.626742431640625,1.4297692775726318,0.03955650329589844,-0.09384936094284058
1788093361627981300,5.636981201171875,-2.0475082397460938,1.24530029296875,-0.5315550565719604
1788093361648484600,5.657484619140625,-0.553380012512207,-0.7860116958618164,-0.20035728812217712
1788093361658748700,5.667748779296875,3.324314594268799,-1.1074285507202148,-0.5344064831733704
1788093361668939800,5.677939697265625,3.7154617309570312,-0.4190073013305664,-0.8093755841255188
1788093361679131000,5.688130859375,0.1818917989730835,0.42107105255126953,-1.0185198783874512
1788093361689344800,5.6983447265625,-2.696218967437744,1.1608734130859375,-1.1310428380966187
1788093361709520600,5.718520751953125,-1.0929235219955444,-1.2321605682373047,-0.0574411004781723
1788093361719583700,5.728583740234375,2.5236899852752686,-1.057912826538086,-0.1335812360048294
1788093361729772300,5.738772216796875,2.017293930053711,-0.2385721206665039,0.5879772901535034
1788093361739910700,5.74891064453125,-0.2588186264038086,-0.3101644515991211,0.3272959887981415
1788093361750024000,5.75902392578125,-0.7075294256210327,-0.5133094787597656,0.8733711242675781
1788093361770502000,5.779501953125,1.4925551414489746,0.3802032470703125,0.33651500940322876
1788093361780766500,5.789766357421875,1.4835524559020996,0.7717962265014648,-0.5363499522209167
1788093361790980400,5.79998046875,-1.7675193548202515,0.13628578186035156,-0.2662633955478668
1788093361801111600,5.810111572265625,-2.2408907413482666,0.9740486145019531,-0.5093240141868591
1788093361811162400,5.820162353515625,-1.1101386547088623,0.8730278015136719,-0.6716232299804688
1788093361821250600,5.83025048828125,0.7616137266159058,-1.0841350555419922,-0.246751070022583
1788093361841401300,5.8504013671875,3.072936534881592,-0.26483154296875,0.4116646647453308
1788093361851640300,5.860640380859375,1.5105946063995361,-0.027252197265625,0.11792264133691788
1788093361861829000,5.8708291015625,-1.22711980342865,-0.4131612777709961,-0.3162044286727905
1788093361872093400,5.881093505859375,-3.0398104190826416,1.5029277801513672,-0.42970502376556396
1788093361882307600,5.8913076171875,-0.7733701467514038,1.4633369445800781,-0.4718000292778015
1788093361902785500,5.91178564453125,2.8460803031921387,0.07947635650634766,0.05569712817668915
1788093361913050000,5.922050048828125,1.9507778882980347,-1.0584850311279297,0.9577878713607788
1788093361923264000,5.932263916015625,1.262630581855774,-0.18164539337158203,-0.1830185204744339
1788093361933276400,5.9422763671875,-0.580386757850647,0.7522201538085938,-0.42346978187561035
1788093361943389400,5.952389404296875,-1.7734075784683228,0.04157829284667969,-0.41413557529449463
1788093361953628700,5.962628662109375,-0.20354080200195312,0.3935432434082031,-0.06156407296657562
1788093361963892700,5.972892822265625,0.282745361328125,-1.5992393493652344,0.9933680891990662
1788093361984370700,5.99337060546875,0.9656051397323608,0.7045001983642578,-0.25514423847198486
1788093361994609700,6.003609619140625,-0.5451116561889648,0.6765670776367188,-0.8796268701553345
1788093362004748000,6.013748046875,-0.5215021371841431,0.7893304824829102,-0.8682299852371216
1788093362014845000,6.023844970703125,1.8179420232772827,-0.08927726745605469,-0.26585543155670166
1788093362035072800,6.04407275390625,-1.209338665008545,-0.29378223419189453,0.42348790168762207
1788093362045136100,6.05413623046875,-1.669741153717041,-0.1614990234375,0.2953575849533081
1788093362055350000,6.06435009765625,-0.05289804935455322,1.2113256454467773,0.14601120352745056
1788093362065362200,6.074362060546875,-1.2211295366287231,1.0079002380371094,-0.1872379183769226
1788093362075475500,6.084475341796875,-3.005053997039795,-1.3260631561279297,0.7296782732009888
1788093362085739500,6.094739501953125,0.34215247631073,-0.42088890075683594,0.1090487614274025
1788093362095953400,6.104953369140625,3.6488564014434814,1.4910564422607422,-0.7821647524833679
1788093362116481800,6.125481689453125,-4.533842086791992,-1.2739496231079102,0.818228542804718
1788093362126670600,6.135670654296875,-0.7213186025619507,-0.513178825378418,0.3691805899143219
1788093362136867600,6.14586767578125,3.847017288208008,1.6714038848876953,-0.8317914009094238
1788093362147028200,6.1560283203125,-1.6528334617614746,0.2718515396118164,-0.0463835708796978
1788093362157091600,6.166091552734375,-4.275654315948486,-1.561746597290039,1.1960539817810059
1788093362177218300,6.18621826171875,4.141651153564453,1.4343843460083008,-1.6972442865371704
1788093362187281700,6.19628173828125,-2.1243982315063477,0.32792091369628906,-0.6568983793258667
1788093362197345300,6.20634521484375,-4.87984561920166,-1.5831947326660156,1.6595940589904785
1788093362207484000,6.21648388671875,0.790152907371521,0.18940258026123047,0.011410407721996307
1788093362217723100,6.22672314453125,4.682219505310059,1.768141746520996,-2.1627514362335205
1788093362227987200,6.2369873046875,-3.329099178314209,-0.07149028778076172,-0.5266213417053223
1788093362248465700,6.257465576171875,2.401825428009033,0.04370594024658203,0.8802585601806641
1788093362258729700,6.267729736328125,5.664980888366699,2.2916259765625,-1.400171160697937
1788093362268943600,6.277943603515625,-3.8746652603149414,-0.31900691986083984,0.42817264795303345
1788093362279157500,6.288157470703125,-4.281550884246826,-1.7861218452453613,2.413104295730591
1788093362289371400,6.298371337890625,1.8259950876235962,0.10150146484375,0.5855532288551331
1788093362309547300,6.31854736328125,-3.9171485900878906,-0.615565299987793,-0.556489884853363
1788093362319610000,6.328610107421875,-4.431455135345459,-2.0643997192382812,1.401785969734192
1788093362329799000,6.338798828125,1.1492801904678345,0.38129615783691406,0.19919541478157043
1788093362339937300,6.348937255859375,6.027931213378906,1.1005859375,-1.0546884536743164
1788093362360264400,6.369264404296875,-2.8889646530151367,-0.9156856536865234,0.4836878180503845
1788093362370528500,6.379528564453125,1.2619391679763794,0.30769824981689453,-0.6035093665122986
1788093362380793000,6.38979296875,4.506267070770264,1.4921283721923828,-2.3444550037384033
1788093362391007000,6.400007080078125,-3.428457260131836,-1.2768497467041016,-0.29033374786376953
1788093362401139700,6.4101396484375,-2.4141666889190674,-0.3623819351196289,1.2497223615646362
1788093362411193000,6.420193115234375,1.2919539213180542,1.0742626190185547,-0.03706099092960358
1788093362421281300,6.43028125,2.4911348819732666,0.6639823913574219,-1.878690242767334
1788093362441432000,6.45043212890625,-1.8740475177764893,-0.09968280792236328,1.3604768514633179
1788093362451671000,6.460671142578125,2.1064274311065674,1.8879966735839844,-0.0046259090304374695
1788093362461885000,6.470885009765625,-0.2224106788635254,-0.10966110229492188,-0.6248324513435364
1788093362472149500,6.4811494140625,-4.094084739685059,-1.3870124816894531,1.3266549110412598
1788093362482338300,6.49133837890625,-0.7856669425964355,0.5290431976318359,1.3950728178024292
1788093362502816300,6.511816162109375,-0.8036296963691711,-0.016348838806152344,-0.6807147264480591
1788093362513080800,6.522080810546875,-5.434698104858398,-1.3155441284179688,1.581889271736145
1788093362523294700,6.532294677734375,-1.5291293859481812,-0.3364372253417969,1.1030645370483398
1788093362533307100,6.54230712890625,4.378514766693115,1.056513786315918,-0.5846996903419495
1788093362543420200,6.552420166015625,0.8029670715332031,0.3339977264404297,-0.46003246307373047
1788093362553659400,6.562659423828125,-4.259044647216797,-0.20803546905517578,2.1273505687713623
1788093362563923500,6.57292333984375,0.4806264638900757,0.8560247421264648,0.9806409478187561
1788093362584401400,6.5934013671875,-1.2411139011383057,-0.7032594680786133,-0.47711530327796936
1788093362594665700,6.603665771484375,-4.083293437957764,-0.10736560821533203,1.428498387336731
1788093362604879400,6.61387939453125,-1.0203917026519775,1.0501203536987305,0.26531559228897095
1788093362625041700,6.634041748046875,-1.8072459697723389,-1.194605827331543,-1.1586732864379883
1788093362645344000,6.654343994140625,0.28721344470977783,1.529952049255371,0.0353039987385273
1788093362655608600,6.664608642578125,2.4247286319732666,1.1649761199951172,-0.8869175314903259
1788093362665822500,6.674822509765625,-3.5648434162139893,-0.9598236083984375,0.8540477752685547
1788093362676086500,6.68508642578125,-3.348559856414795,-0.1988687515258789,1.6297931671142578
1788093362686300400,6.695300537109375,1.035102367401123,0.35709285736083984,0.8389174938201904
1788093362706778400,6.7157783203125,-3.5801665782928467,-1.7632603645324707,0.9772697687149048
1788093362716870400,6.725870361328125,-1.8116121292114258,0.0755777359008789,0.6912540197372437
1788093362726934300,6.735934326171875,2.2296910285949707,1.2324695587158203,-0.5002440214157104
1788093362737098000,6.746097900390625,2.7266650199890137,1.6205110549926758,-1.7267601490020752
1788093362747362600,6.756362548828125,-5.341974258422852,-0.8732089996337891,0.7130919098854065
1788093362757576400,6.766576416015625,-2.0057592391967773,-0.4441967010498047,1.2462968826293945
1788093362778054700,6.7870546875,1.9878923892974854,0.7427997589111328,-1.124596357345581
1788093362788268300,6.797268310546875,-5.850124835968018,-1.1611213684082031,1.22056245803833
1788093362798532900,6.807532958984375,-3.880134344100952,-0.27552032470703125,1.1992895603179932
1788093362808746800,6.817746826171875,2.1580896377563477,1.7627077102661133,-0.6816307306289673
1788093362818986000,6.827986083984375,-0.8047072887420654,-0.3323392868041992,-1.5544019937515259
1788093362829250300,6.838250244140625,-5.082698822021484,-1.132756233215332,0.1579923927783966
1788093362849728500,6.858728515625,3.082221031188965,2.106940269470215,-1.3232125043869019
1788093362859992800,6.868992919921875,-1.336646556854248,-1.8224153518676758,0.22510598599910736
1788093362870206500,6.87920654296875,-2.5111279487609863,-0.4979991912841797,2.291599750518799
1788093362880420400,6.88942041015625,1.7909400463104248,2.317697525024414,2.1591031551361084
1788093362890592300,6.89959228515625,2.553999900817871,1.1215286254882812,0.7389302253723145
1788093362910593000,6.919593017578125,-3.413320302963257,0.4548768997192383,1.3402527570724487
1788093362920656000,6.92965576171875,0.7839109897613525,1.4912128448486328,-0.18947964906692505
1788093362930719700,6.9397197265625,2.7514705657958984,1.707052230834961,-2.5591039657592773
1788093362940783000,6.949783203125,-4.289729595184326,-0.6046295166015625,-1.4573016166687012
1788093362950846500,6.959846435546875,-4.313007354736328,-0.0014057159423828125,-0.365479975938797
1788093362970974200,6.97997412109375,3.5565977096557617,1.4306058883666992,-0.1881556212902069
1788093362981037600,6.99003759765625,-2.6029562950134277,-1.258479118347168,1.8509247303009033
1788093362991251500,7.00025146484375,-1.605119228363037,0.30883026123046875,2.9587576389312744
1788093363001490700,7.01049072265625,1.121021032333374,0.6520805358886719,3.4884514808654785
1788093363011755000,7.020755126953125,1.4804335832595825,-0.16486263275146484,1.91512930393219
1788093363021969000,7.030968994140625,-2.9519166946411133,-1.9629583358764648,1.8242534399032593
1788093363042472200,7.05147216796875,1.964897871017456,1.7898435592651367,-1.6392155885696411
1788093363052711200,7.061711181640625,-1.4072935581207275,-0.7401752471923828,-3.3491549491882324
1788093363062808800,7.071808837890625,-2.5643069744110107,-1.8087968826293945,-2.358539342880249
1788093363072967200,7.08196728515625,1.039880633354187,1.1135978698730469,-1.2011100053787231
1788093363093092600,7.102092529296875,-1.089735746383667,-1.4728260040283203,-0.3480333387851715
1788093363113570800,7.12257080078125,0.14711952209472656,0.24834442138671875,1.9968875646591187
1788093363123784700,7.13278466796875,2.115274429321289,1.4325923919677734,-0.40680450201034546
1788093363134048800,7.143048828125,-3.7779417037963867,-1.921285629272461,-1.1958187818527222
1788093363144262700,7.1532626953125,-1.4636976718902588,-0.8534173965454102,-0.881588339805603
1788093363154519800,7.163519775390625,2.6308329105377197,1.0348796844482422,-0.4095972776412964
1788093363164722000,7.173721923828125,3.2385921478271484,0.9730453491210938,-1.374818205833435
1788093363184897800,7.193897705078125,-3.0597662925720215,0.05246257781982422,0.7537546157836914
1788093363195112000,7.20411181640625,-0.21517813205718994,1.1352720260620117,1.205216646194458
1788093363205325800,7.214325927734375,-0.6698213815689087,-0.46971702575683594,-0.45846399664878845
1788093363225804000,7.234803955078125,0.6050522327423096,1.7281913757324219,-0.09568408131599426
1788093363246282000,7.255281982421875,-0.2798851728439331,-0.6041412353515625,-1.2867404222488403
1788093363266590000,7.27558984375,-2.099844455718994,0.32575035095214844,0.9728350639343262
1788093363276653000,7.285653076171875,-0.2888302803039551,3.5601749420166016,-0.04571640491485596
1788093363286716400,7.29571630859375,-3.817718267440796,-0.7729864120483398,-0.6104548573493958
1788093363296780800,7.30578076171875,-1.1324901580810547,-2.230774402618408,0.4532950222492218
1788093363307044900,7.316044921875,2.146916389465332,1.4164276123046875,1.9294328689575195
1788093363316956400,7.325956298828125,2.696479320526123,2.7956676483154297,-0.2464308738708496
1788093363327170300,7.33617041015625,-3.942223072052002,-0.048453330993652344,-1.4433602094650269
1788093363337435000,7.346434814453125,-3.8849141597747803,-2.009986400604248,-0.13178080320358276
1788093363347648800,7.356648681640625,-1.7533254623413086,1.597219467163086,1.664580225944519
1788093363357837600,7.366837646484375,-0.17425930500030518,3.01999568939209,-0.14680837094783783
1788093363388378400,7.39737841796875,3.3264341354370117,0.2822399139404297,2.3895182609558105
1788093363398628600,7.407628662109375,0.8715701103210449,0.7300605773925781,-0.5028767585754395
1788093363408737500,7.417737548828125,-4.821399211883545,-1.1581754684448242,-0.6932543516159058
1788093363418801200,7.42780126953125,-1.9142122268676758,-1.0339679718017578,1.126434087753296
1788093363428864800,7.43786474609375,2.909846544265747,2.6106576919555664,1.67417311668396
1788093363448992000,7.457991943359375,-0.9116288423538208,-3.6113953590393066,-0.6456429958343506
1788093363459055600,7.4680556640625,0.2406371831893921,-0.8714742660522461,0.336770623922348
1788093363469119000,7.478118896484375,0.5609250068664551,0.9966001510620117,-0.6429383158683777
1788093363479257600,7.488257568359375,-1.6390260457992554,-0.37392234802246094,-2.1620607376098633
1788093363489421000,7.498421142578125,-2.609574317932129,-1.6729793548583984,-0.6496099233627319
1788093363499358000,7.50835791015625,-0.14656269550323486,-0.25263309478759766,1.447410225868225
1788093363509622300,7.518622314453125,1.0248807668685913,2.178034782409668,-0.07546734809875488
1788093363519836200,7.528836181640625,-2.6889710426330566,-1.1156978607177734,-1.4140923023223877
1788093363530100500,7.5391005859375,-0.7598038911819458,-2.984461784362793,-0.23652033507823944
1788093363540314400,7.549314453125,2.440358877182007,-0.5733366012573242,0.05341310799121857
1788093363550528300,7.5595283203125,2.491522789001465,2.0705528259277344,-2.4044785499572754
1788093363571006500,7.58000634765625,-2.703977584838867,-3.290031909942627,-0.5062961578369141
1788093363581076500,7.590076416015625,1.335330843925476,0.1935892105102539,0.3550747036933899
1788093363591290000,7.6002900390625,0.4330071210861206,3.4779367446899414,-2.017143487930298
1788093363601529300,7.610529296875,-3.589921474456787,-3.553934097290039,-1.8064002990722656
1788093363611793700,7.620793701171875,2.63643217086792,-1.7702293395996094,-0.21981754899024963
1788093363622007800,7.6310078125,3.744260787963867,2.7759532928466797,0.10533224791288376
1788093363632272000,7.64127197265625,-0.4147675037384033,0.5797338485717773,-2.3662383556365967
1788093363652749800,7.661749755859375,0.06681036949157715,-0.6037607192993164,1.2595596313476562
1788093363662964000,7.6719638671875,2.3782553672790527,4.137343406677246,-0.6398881077766418
1788093363673228300,7.682228271484375,-4.951580047607422,-1.2661933898925781,-1.8470288515090942
1788093363683442400,7.6924423828125,-1.4438358545303345,-3.40903902053833,-0.49005985260009766
1788093363693656300,7.70265625,1.3127940893173218,0.8596487045288086,0.8050435781478882
1788093363703920400,7.71292041015625,2.858144998550415,4.77641487121582,-1.7111334800720215
1788093363724398800,7.73339892578125,-3.2024950981140137,-4.77030611038208,0.5586069822311401
1788093363734537700,7.743537841796875,1.2150626182556152,0.8132734298706055,2.039252519607544
1788093363744710000,7.7537099609375,2.3187220096588135,6.430685997009277,-1.1966667175292969
1788093363754974200,7.76397412109375,-4.478557109832764,-1.928171157836914,-1.9043242931365967
1788093363765188400,7.774188232421875,2.113892078399658,-2.1708011627197266,0.7319272756576538
1788093363785666300,7.794666259765625,-0.529309868812561,2.706789970397949,-2.130904197692871
1788093363795931000,7.804930908203125,-6.7355499267578125,0.05211353302001953,-2.3249149322509766
1788093363806144800,7.815144775390625,-2.4790239334106445,-1.012542724609375,0.7603617906570435
1788093363816310800,7.825310791015625,2.2548885345458984,2.325697898864746,2.568356990814209
1788093363826376400,7.83537646484375,-1.0773944854736328,-0.7619171142578125,0.2558091878890991
1788093363846503700,7.855503662109375,1.2966604232788086,2.6016578674316406,0.84958815574646
1788093363856567000,7.865567138671875,1.6768906116485596,1.3455305099487305,1.6441309452056885
1788093363866630700,7.875630615234375,-2.4806180000305176,-2.690546989440918,0.43667709827423096
1788093363876694000,7.885694091796875,-1.3414078950881958,-0.7900514602661133,0.1706453263759613
1788093363886757400,7.89575732421875,0.7194410562515259,1.444117546081543,0.8296711444854736
1788093363907085800,7.9160859375,-2.6920342445373535,-2.5509181022644043,-1.282967209815979
1788093363916997400,7.925997314453125,-1.5598742961883545,0.04067230224609375,-1.4485430717468262
1788093363927211300,7.936211181640625,1.78903329372406,2.513455390930176,-0.6031992435455322
1788093363937475800,7.946475830078125,0.011392354965209961,1.455545425415039,-1.324641466140747
1788093363947689700,7.956689697265625,-4.003775596618652,-1.8656501770019531,-0.46441173553466797
1788093363957878500,7.96687841796875,-0.951722264289856,-0.31073856353759766,0.7335255146026611
1788093363978205700,7.987205810546875,-0.7166892290115356,0.9747533798217773,-0.12214064598083496
1788093363988268500,7.9972685546875,-4.226557731628418,-1.1069774627685547,-0.04896533489227295
1788093363998457000,8.00745703125,-2.0532209873199463,0.8326826095581055,0.8586955666542053
1788093364008664600,8.01766455078125,0.6470551490783691,1.6874465942382812,1.7405834197998047
1788093364018843000,8.0278427734375,0.2633397579193115,-1.0910615921020508,0.05860871076583862
1788093364028931600,8.037931640625,-2.533458709716797,-1.2856969833374023,-1.144008755683899
1788093364049082400,8.058082275390625,1.0700321197509766,2.6061534881591797,-0.06697756052017212
1788093364059321300,8.0683212890625,-0.3411979675292969,-1.0585479736328125,-0.5904446244239807
1788093364069585400,8.07858544921875,-2.095787525177002,-1.6857452392578125,0.1596871018409729
1788093364079799300,8.08879931640625,0.97242271900177,1.1640129089355469,0.9809148907661438
1788093364090063600,8.099063720703125,2.457303047180176,2.9767866134643555,0.5418557524681091
1788093364110516500,8.1195166015625,-3.052485466003418,-2.694164276123047,-0.19076627492904663
1788093364120579300,8.129579345703124,1.2721632719039917,2.0732955932617188,1.085423231124878
1788093364130793200,8.139793212890625,3.255837917327881,4.397764205932617,-0.43844282627105713
1788093364140931600,8.149931640625,-6.109312534332275,-1.4306554794311523,-1.8461155891418457
1788093364150978000,8.15997802734375,-3.658400297164917,-2.890223979949951,-1.0612740516662598
1788093364171055400,8.180055419921874,2.465527057647705,4.041923522949219,1.620875597000122
1788093364181119000,8.190118896484375,-4.827366828918457,-3.1053762435913086,-0.17485904693603516
1788093364191332900,8.200332763671875,-2.2353477478027344,-1.766374111175537,0.08994239568710327
1788093364201572000,8.210572021484374,1.6967930793762207,2.3611555099487305,1.6662040948867798
1788093364211836400,8.22083642578125,1.9951220750808716,2.261237144470215,1.87537682056427
1788093364222050300,8.23105029296875,-2.6819863319396973,-2.959477424621582,-0.5885430574417114
1788093364232314600,8.241314697265626,-1.0533692836761475,2.120363235473633,-0.555194616317749
1788093364252792600,8.26179248046875,0.012065768241882324,-1.4828596115112305,0.4250219464302063
1788093364262891300,8.271891357421875,-3.391484260559082,-3.24790096282959,-0.12142565846443176
1788093364273049900,8.2820498046875,-0.35239994525909424,2.714493751525879,-1.3171722888946533
1788093364283163000,8.292162841796875,-0.1162642240524292,2.5776281356811523,-1.0759985446929932
1788093364293175300,8.30217529296875,-2.794447898864746,-0.745396614074707,-0.749507486820221
1788093364313653500,8.322653564453125,2.139759063720703,0.9318552017211914,1.812486171722412
1788093364323716400,8.33271630859375,3.869149684906006,4.542651176452637,-0.37993323802948
1788093364333905000,8.34290478515625,-4.407977104187012,-0.3459949493408203,-0.9397774934768677
1788093364344118800,8.353118896484375,-1.5111684799194336,-2.241861343383789,0.4682196378707886
1788093364354383000,8.363383056640625,3.8352131843566895,0.29714298248291016,2.3766138553619385
1788093364364597200,8.37359716796875,2.776097059249878,2.108133316040039,0.7432917356491089
1788093364384912100,8.393912109375,-2.347996711730957,-3.554056167602539,-0.03594255447387695
1788093364394971400,8.403971435546875,1.7399107217788696,1.8587779998779297,1.0307549238204956
1788093364405135000,8.414135009765625,1.5692617893218994,3.9639596939086914,-1.2111897468566895
1788093364415248100,8.424248046875,-4.541103839874268,-3.0475058555603027,-2.9857981204986572
1788093364425260500,8.434260498046875,-0.6829617023468018,-1.8743476867675781,-1.5972239971160889
1788093364445713400,8.45471337890625,1.0230997800827026,0.07536888122558594,0.023289859294891357
1788093364455978000,8.46497802734375,-2.0129287242889404,-2.0744357109069824,-0.32761484384536743
1788093364466192000,8.47519189453125,-2.0074944496154785,-0.6266012191772461,2.2081501483917236
1788093364476330200,8.485330322265625,-0.35902929306030273,1.3239507675170898,3.0974278450012207
1788093364486443500,8.495443603515625,1.966450810432434,2.190892219543457,-0.5189770460128784
1788093364506720300,8.51572021484375,-0.07380342483520508,-1.0777883529663086,0.3054179251194
1788093364516959200,8.525959228515624,0.9750411510467529,1.8097200393676758,0.8533672094345093
1788093364527053600,8.536053466796876,-0.18688833713531494,0.2677326202392578,-1.127016544342041
1788093364537120800,8.546120849609375,-1.8720238208770752,-1.7439861297607422,-1.771308183670044
1788093364547259400,8.55625927734375,-1.2010775804519653,-0.21239185333251953,0.5387067794799805
1788093364567385000,8.576385009765625,-0.2663431167602539,-1.415928840637207,-0.7078942060470581
1788093364587863600,8.596863525390624,-1.5259532928466797,-0.2618436813354492,0.6578023433685303
1788093364598127600,8.607127685546875,0.5461212396621704,-0.28590965270996094,-0.11500614881515503
1788093364608341500,8.617341552734375,2.0463435649871826,0.08635997772216797,-1.5495635271072388
1788093364628819500,8.6378193359375,0.20938575267791748,0.26024532318115234,0.6856499314308167
1788093364649079000,8.6580791015625,-0.021536827087402344,-1.4189491271972656,-0.40681660175323486
1788093364659293000,8.66829296875,1.1432445049285889,-1.4949836730957031,-0.28427791595458984
1788093364669532000,8.678531982421875,-0.06702327728271484,1.0742197036743164,-0.11540684103965759
1788093364679645200,8.688645263671875,-1.0407236814498901,0.5359029769897461,-1.2316036224365234
1788093364689657600,8.69865771484375,-0.3001537322998047,-0.274017333984375,-2.1890692710876465
1788093364710135600,8.719135498046874,-0.7075121402740479,0.5160675048828125,-0.39842167496681213
1788093364720349400,8.729349365234375,1.3757898807525635,0.14942550659179688,-1.692007064819336
1788093364730614000,8.739614013671876,-0.16595184803009033,-0.5400485992431641,-1.4290637969970703
1788093364740819000,8.74981884765625,-0.8655568361282349,-0.694331169128418,0.1713445484638214
1788093364750973700,8.7599736328125,1.660269021987915,1.7118921279907227,0.24798482656478882
1788093364771101000,8.780100830078124,0.6108963489532471,-1.6801929473876953,0.0253189355134964
1788093364781164800,8.790164794921875,0.7394613027572632,0.17166423797607422,0.9591116905212402
1788093364791378700,8.800378662109376,0.13252854347229004,0.5594348907470703,0.46631866693496704
1788093364801617700,8.81061767578125,0.7297097444534302,-0.3925037384033203,-1.1858683824539185
1788093364811882000,8.820882080078125,-1.5962516069412231,0.31876182556152344,-0.6082490682601929
1788093364822096100,8.83109619140625,-0.6259984374046326,0.691197395324707,-0.834556519985199
1788093364832360200,8.841360107421876,-1.0418179035186768,0.7324342727661133,-1.3801213502883911
1788093364852838400,8.86183837890625,-0.765197217464447,-1.4717540740966797,-0.31963050365448
1788093364862937000,8.87193701171875,0.35462963581085205,1.7217988967895508,0.5178404450416565
1788093364873096000,8.882095947265626,-1.6219799518585205,-0.2447948455810547,0.5591707825660706
1788093364883209000,8.892208984375,0.07645606994628906,-0.6426830291748047,0.6329504251480103
1788093364893221600,8.9022216796875,-0.955528736114502,1.2993135452270508,1.682865858078003
1788093364913699600,8.922699462890625,1.9261620044708252,0.4542360305786133,-0.6627424955368042
1788093364923762400,8.932762451171875,-0.14668047428131104,0.11745834350585938,-0.18128342926502228
1788093364933951200,8.942951171875,0.8542072772979736,1.3539848327636719,-0.626178503036499
1788093364944165000,8.9531650390625,-2.17559552192688,0.29921722412109375,0.29166311025619507
1788093364954429400,8.963429443359376,-1.209575891494751,-2.8802905082702637,0.6464037895202637
1788093364964643300,8.973643310546874,-0.1125568151473999,-0.8060579299926758,-0.1455206573009491
1788093364984958700,8.993958740234374,-1.5186569690704346,-0.9152631759643555,-0.7543659806251526
1788093364995018200,9.004018310546876,0.3359895944595337,0.6113300323486328,-1.6586036682128906
1788093365005182000,9.014181884765625,0.542953372001648,0.046677589416503906,0.32298436760902405
1788093365025307600,9.0343076171875,0.6166448593139648,0.2750263214111328,-0.6815268993377686
1788093365045760500,9.054760498046875,0.9319229125976562,1.7841987609863281,0.19097697734832764
1788093365056024800,9.06502490234375,-1.3527454137802124,-1.6400556564331055,1.742394208908081
1788093365066239000,9.075239013671874,2.858673572540283,-0.8443765640258789,-1.4337631464004517
1788093365076377300,9.08537744140625,-0.5423563122749329,0.638585090637207,-3.1914546489715576
1788093365086490400,9.095490478515625,-2.3573577404022217,0.2762928009033203,-0.6005167365074158
1788093365096704300,9.105704345703124,-0.7824283838272095,-0.09337902069091797,-0.5726115703582764
1788093365106767400,9.115767333984374,0.1653050184249878,-0.6287498474121094,0.19405832886695862
1788093365117006300,9.12600634765625,2.8669023513793945,0.7051925659179688,-1.7418158054351807
1788093365127101000,9.136100830078124,-0.523168683052063,-0.4005470275878906,-0.773666501045227
1788093365137168100,9.146168212890625,-0.38761550188064575,-0.22284221649169922,0.4590570330619812
1788093365147307000,9.15630712890625,-0.3587265610694885,1.7929773330688477,-0.6938388347625732
1788093365167432400,9.176432373046875,0.5477036237716675,-0.3949317932128906,-0.6624648571014404
1788093365187911400,9.196911376953125,-1.061293125152588,-0.5037097930908203,0.31967175006866455
1788093365198175500,9.207175537109375,-0.05836451053619385,0.24822425842285156,-0.7507185935974121
1788093365208389400,9.217389404296876,0.6455565690994263,0.13251781463623047,0.5875034332275391
1788093365218653400,9.2276533203125,1.3581609725952148,1.6429729461669922,-0.4785044491291046
1788093365228867300,9.237867431640625,-2.1335949897766113,0.5264101028442383,0.8106000423431396
1788093365249127000,9.258126953125,0.7344785928726196,1.8213958740234375,0.42710185050964355
1788093365259340800,9.2683408203125,-0.9186362028121948,-1.2233104705810547,0.7453648447990417
1788093365269353200,9.278353271484375,0.18366515636444092,-0.38141632080078125,-1.7973554134368896
1788093365279466200,9.28846630859375,-1.6679446697235107,-0.3452310562133789,-1.0150389671325684
1788093365289730600,9.29873046875,-0.16532933712005615,0.7492513656616211,-0.5619112253189087
1788093365299919000,9.308919189453125,-2.832940101623535,-0.7152156829833984,0.6761188507080078
1788093365310183400,9.319183349609375,-0.21063649654388428,0.30677223205566406,-0.00927172601222992
1788093365320422400,9.32942236328125,-0.507704496383667,0.8728199005126953,-0.4750783443450928
1788093365330686500,9.3396865234375,0.19459819793701172,-0.6824674606323242,0.7058981657028198
1788093365340879400,9.34987939453125,0.5481009483337402,-0.2529563903808594,-0.13215577602386475
1788093365351097300,9.360097412109376,-2.113671064376831,0.5396642684936523,0.9209440350532532
1788093365361311200,9.370311279296875,-0.24338388442993164,1.3544731140136719,0.6908667683601379
1788093365371575600,9.380575439453125,0.9582557678222656,0.3357830047607422,1.7123483419418335
1788093365392054300,9.40105419921875,1.7492928504943848,0.1294097900390625,-1.9382840394973755
1788093365402268200,9.41126806640625,-0.857430100440979,-1.527174949645996,-1.1517881155014038
1788093365412532700,9.42153271484375,-1.1389260292053223,0.20905494689941406,-2.0052671432495117
1788093365422685200,9.431685302734374,-2.9929256439208984,-0.2414693832397461,0.08596640080213547
1788093365432790000,9.4417900390625,-1.015380859375,-0.5601520538330078,-0.06867735832929611
1788093365443054000,9.45205419921875,0.49898242950439453,0.047698020935058594,0.34117361903190613
1788093365453319200,9.462319091796875,2.487269163131714,0.9625740051269531,0.6600940823554993
1788093365463533000,9.472532958984376,0.7050904035568237,-0.1044464111328125,0.803477942943573
1788093365473797000,9.482797119140624,1.6748414039611816,0.4395608901977539,0.23897115886211395
1788093365484011000,9.493010986328125,-0.6519792675971985,0.6064767837524414,-0.2496919482946396
1788093365494225000,9.503224853515626,-1.1200097799301147,-0.27040767669677734,0.5014684796333313
1788093365504467700,9.5134677734375,-1.4165995121002197,-0.6404056549072266,-0.5866169929504395
1788093365514557700,9.5235576171875,-0.6941649913787842,-0.2730274200439453,-0.3176097273826599
1788093365524621600,9.53362158203125,0.4665783643722534,1.017064094543457,-1.8060221672058105
1788093365534685200,9.543685302734374,-1.4374141693115234,0.4515190124511719,0.021396197378635406
1788093365544748500,9.55374853515625,1.876427412033081,0.9329566955566406,0.3332197964191437
1788093365554812000,9.56381201171875,-0.21671044826507568,0.5115041732788086,0.778560996055603
1788093365574940200,9.583940185546876,-1.137744665145874,-0.21886157989501953,0.205503448843956
1788093365585004000,9.594004150390624,-1.407818078994751,-0.3982048034667969,0.36949461698532104
1788093365595068000,9.60406787109375,-0.7341055870056152,-0.07983589172363281,-1.768548846244812
1788093365605231600,9.614231689453124,-0.14796781539916992,-0.3496379852294922,-0.8452686667442322
1788093365615344600,9.6243447265625,1.0888351202011108,0.5514230728149414,-0.7125557065010071
1788093365625357300,9.634357421875,-1.3407204151153564,-0.43381404876708984,0.5535269379615784
1788093365645835300,9.654835205078125,-2.1768364906311035,0.4310483932495117,0.011004537343978882
1788093365656099300,9.665099365234376,0.4350525140762329,0.8850545883178711,1.1252250671386719
1788093365666313200,9.675313232421875,1.3394962549209595,-0.31813526153564453,1.7300684452056885
1788093365676451600,9.68545166015625,3.5284652709960938,-0.04788398742675781,1.009171962738037
1788093365686564900,9.69556494140625,1.48793363571167,1.2259321212768555,0.06644000113010406
1788093365706841600,9.715841552734375,-1.1297111511230469,-0.017487525939941406,-1.1480053663253784
1788093365717067500,9.726067626953125,-1.2611294984817505,-0.36698150634765625,-0.5721501111984253
1788093365727154400,9.736154541015624,-0.20271062850952148,-1.2918357849121094,0.1628257930278778
1788093365737218300,9.74621826171875,0.1781238317489624,-0.6886043548583984,0.4029626250267029
1788093365747357200,9.756357177734374,-0.0212782621383667,0.31384754180908203,0.4198695421218872
1788093365767483000,9.77648291015625,-1.2776238918304443,0.2122507095336914,0.5246318578720093
1788093365787961600,9.796961669921876,2.9319474697113037,0.5916719436645508,-0.20366153120994568
1788093365798225700,9.8072255859375,3.023819923400879,-1.1791000366210938,0.16730311512947083
1788093365808439600,9.817439453125,2.9796814918518066,-0.3465461730957031,-0.7089316844940186
1788093365818628400,9.82762841796875,-2.5508885383605957,0.0906515121459961,-0.5318374633789062
1788093365828890000,9.83789013671875,-3.597766637802124,-0.026182174682617188,-0.313480019569397
1788093365849177600,9.858177490234375,-0.6264925003051758,0.040912628173828125,0.02313840389251709
1788093365859241500,9.868241455078126,0.3620917797088623,-0.8020610809326172,0.6926981210708618
1788093365869305300,9.878305419921874,2.8658547401428223,0.012664794921875,0.2626705765724182
1788093365879444000,9.88844384765625,0.46747374534606934,0.9038228988647461,1.075636625289917
1788093365889607400,9.898607421875,-0.11014986038208008,1.2003870010375977,0.2732279300689697
1788093365909808600,9.91880859375,1.0821248292922974,-0.2305145263671875,0.007817864418029785
1788093365920073500,9.929073486328125,-0.11730003356933594,-1.0498590469360352,-0.3695487380027771
1788093365930287400,9.939287353515626,-0.8642277717590332,-1.2277040481567383,-0.5395670533180237
1788093365940501200,9.949501220703125,-1.632142424583435,-0.2787647247314453,-0.4707412123680115
1788093365950765800,9.959765869140625,-2.309718370437622,1.508509635925293,-0.09584230184555054
1788093365960980200,9.969980224609374,-1.1522141695022583,0.433868408203125,0.5257186889648438
1788093365971244300,9.980244384765625,2.1727662086486816,0.3446197509765625,0.14208009839057922
1788093365991328300,10.000328369140625,1.7090927362442017,-1.5210199356079102,0.16854313015937805
1788093366001391900,10.010391845703126,1.4068899154663086,-0.1710071563720703,0.1341540813446045
1788093366011456000,10.0204560546875,-1.7362300157546997,-0.1525115966796875,-0.8024573922157288
1788093366021519400,10.030519287109374,-1.479008674621582,-0.32320594787597656,-0.9425913095474243
1788093366041646300,10.050646240234375,-0.270546555519104,0.29776668548583984,0.19195201992988586
1788093366051710700,10.060710693359376,0.04702341556549072,0.0026874542236328125,0.3780294358730316
1788093366061875000,10.070875,2.105520248413086,-0.6650533676147461,0.6155699491500854
1788093366071988000,10.080988037109375,1.2105027437210083,-0.5077152252197266,0.007206052541732788
1788093366082000400,10.09100048828125,-0.3951144814491272,0.5932531356811523,-0.5896508097648621
1788093366102478600,10.111478515625,0.42298460006713867,0.025404930114746094,-0.27714240550994873
1788093366112743400,10.121743408203125,0.2504228353500366,-1.3029193878173828,-0.6349730491638184
1788093366122957300,10.131957275390626,-0.21286749839782715,-0.2672767639160156,-0.8634974956512451
1788093366133171200,10.142171142578125,-0.5578309297561646,1.7697429656982422,-0.8708934783935547
1788093366143385000,10.152385009765625,0.05436217784881592,1.1387691497802734,-0.202775239944458
1788093366153601000,10.16260107421875,1.7534195184707642,-0.5050745010375977,0.4022807776927948
1788093366163670500,10.17267041015625,2.471802234649658,0.2136240005493164,0.16006499528884888
1788093366173934800,10.182934814453125,0.797877311706543,0.07628631591796875,0.04460662603378296
1788093366184173800,10.193173828125,-1.7683568000793457,-1.0532808303833008,0.5332597494125366
1788093366194438700,10.203438720703126,-1.8649275302886963,-1.0613861083984375,0.034655600786209106
1788093366204652800,10.21365283203125,-2.5551235675811768,0.9764509201049805,-0.8165032863616943
1788093366214866700,10.22386669921875,-0.5944881439208984,0.8461322784423828,-1.6849418878555298
1788093366225131000,10.234131103515624,0.819808840751648,-1.185532569885254,0.30753082036972046
1788093366245609500,10.254609375,-1.1612268686294556,1.4222087860107422,1.045082688331604
1788093366255527400,10.26452734375,-1.6298086643218994,0.4337739944458008,0.7929832935333252
1788093366265566700,10.274566650390625,0.44342875480651855,-0.6336946487426758,0.9994831085205078
1788093366275630000,10.284630126953125,2.4691641330718994,-1.1982183456420898,0.82095867395401
1788093366285693400,10.294693359375,0.3298701047897339,-2.846919059753418,0.898668646812439
1788093366295758000,10.304758056640624,-0.027196526527404785,0.09014129638671875,-0.7513608336448669
1788093366315885600,10.324885498046875,-2.1587862968444824,2.293747901916504,-2.10591721534729
1788093366325949400,10.334949462890625,-0.833283543586731,-0.6366052627563477,-0.10363355278968811
1788093366336013600,10.345013671875,4.086668014526367,-0.18459701538085938,-0.11964258551597595
1788093366346127000,10.355127197265626,3.103240966796875,-0.2715616226196289,0.6817367076873779
1788093366366630400,10.37563037109375,-0.6496379375457764,-0.06588363647460938,1.4159632921218872
1788093366376895500,10.3858955078125,-0.9303058981895447,0.48925113677978516,0.9340658783912659
1788093366387109400,10.396109375,-3.7952752113342285,-1.089228630065918,0.8827181458473206
1788093366397373400,10.40637353515625,-0.9040341973304749,0.3816862106323242,-0.48040255904197693
1788093366407587300,10.41658740234375,-1.587253451347351,0.09632587432861328,-0.19967296719551086
1788093366417801200,10.42680126953125,0.20585596561431885,0.13396835327148438,-0.38817837834358215
1788093366428065500,10.4370654296875,2.5248632431030273,0.6526603698730469,-1.465683102607727
1788093366448544300,10.457544189453126,-0.20496654510498047,-0.997715950012207,-0.8288002610206604
1788093366458758100,10.467758056640625,-1.2330321073532104,-0.5213146209716797,0.34502974152565
1788093366469022700,10.478022705078125,-0.8203338384628296,0.16547775268554688,0.5615715980529785
1788093366479236900,10.48823681640625,-0.2912367582321167,-0.32220935821533203,0.598676860332489
1788093366489460000,10.4984599609375,0.9909716844558716,-0.43861865997314453,0.2882680296897888
1788093366499550000,10.508550048828125,1.3066954612731934,0.486907958984375,0.023950427770614624
1788093366509814300,10.518814208984375,0.7444770336151123,1.6279726028442383,-0.1542121171951294
1788093366520079400,10.529079345703124,-0.12326157093048096,-0.45303821563720703,0.3592206537723541
1788093366530293200,10.539293212890625,1.1096705198287964,0.5074729919433594,-0.05698254704475403
1788093366540507000,10.5495068359375,-0.1151803731918335,0.42494964599609375,-0.2703920602798462
1788093366550771500,10.559771484375,-1.0733104944229126,-1.5054035186767578,0.30451124906539917
1788093366560985900,10.56998583984375,1.3982765674591064,0.44501590728759766,-0.7620280981063843
1788093366581318700,10.590318603515625,-1.759223461151123,2.022012710571289,-0.9907433986663818
1788093366591382500,10.600382568359375,-1.3865349292755127,-0.1952676773071289,0.8959453105926514
1788093366601446400,10.6104462890625,0.9519939422607422,-1.0627307891845703,1.4321485757827759
1788093366611510500,10.620510498046874,0.30364716053009033,-1.4307355880737305,1.8902305364608765
1788093366621574000,10.630573974609375,0.9508321285247803,-1.1417531967163086,0.85540771484375
1788093366641700900,10.650700927734375,-1.535235047340393,0.7481470108032227,-1.2265645265579224
1788093366651765200,10.66076513671875,-2.2270350456237793,0.7956390380859375,-1.1489766836166382
1788093366661929500,10.670929443359375,0.40717613697052,0.28485870361328125,-0.9773240089416504
1788093366682055000,10.691054931640625,0.39577341079711914,-1.4076147079467773,0.2965402603149414
1788093366692319200,10.7013193359375,0.7003105878829956,0.4308891296386719,-0.1124136745929718
1788093366712798000,10.7217978515625,0.29384613037109375,-2.1369400024414062,0.6611217260360718
1788093366723011800,10.73201171875,0.9951297044754028,-0.74896240234375,-0.044824063777923584
1788093366733276400,10.7422763671875,0.4178832769393921,1.9442272186279297,-1.3053131103515625
1788093366743490600,10.752490478515625,0.06359219551086426,1.0830068588256836,-1.4785640239715576
1788093366753694000,10.76269384765625,1.55864417552948,0.7189712524414062,-0.42571258544921875
1788093366773789400,10.78278955078125,-1.3295788764953613,-0.12624263763427734,1.3409627676010132
1788093366783853300,10.792853271484375,-1.757535696029663,-2.315258502960205,1.7949650287628174
1788093366793917200,10.802917236328126,-0.713195264339447,-0.17964744567871094,0.06657308340072632
1788093366803980800,10.812980712890624,-0.07622420787811279,0.2062397003173828,-1.3085606098175049
1788093366814044700,10.823044677734375,-0.18607103824615479,-0.6771583557128906,-0.9346101880073547
1788093366824108800,10.83310888671875,0.9781732559204102,0.4108438491821289,-1.2575339078903198
1788093366834172400,10.84317236328125,0.31301748752593994,1.6062917709350586,-1.4215043783187866
1788093366844411400,10.853411376953124,0.14199864864349365,1.8072614669799805,-1.0159181356430054
1788093366854373400,10.863373291015625,0.14979171752929688,-0.6783552169799805,0.8182016611099243
1788093366864512000,10.873511962890625,0.900931715965271,-1.452347755432129,1.7311453819274902
1788093366874675500,10.883675537109376,-1.2391021251678467,-0.5207624435424805,1.3789334297180176
1788093366884788700,10.893788818359376,-1.0600478649139404,-0.33882904052734375,0.6826331615447998
1788093366905090600,10.914090576171875,1.1854751110076904,0.614100456237793,-1.1262232065200806
1788093366915304400,10.924304443359375,-0.3671690821647644,-0.235565185546875,-0.6743004322052002
1788093366925518300,10.934518310546874,0.045252442359924316,0.5893449783325195,-0.6340372562408447
1788093366935783000,10.944782958984375,-0.977732241153717,-0.1915149688720703,0.07125180959701538
1788093366945997000,10.9549970703125,-0.7908747792243958,-0.9595394134521484,-0.1531297266483307
1788093366966265600,10.975265625,-0.08837854862213135,0.9009675979614258,0.6156359910964966
1788093366976324400,10.985324462890626,2.2663424015045166,-0.9375581741333008,0.20143470168113708
1788093366986513200,10.99551318359375,1.6453077793121338,-1.692032814025879,0.4384899139404297
1788093366996576000,11.005575927734375,0.588151216506958,-0.14478588104248047,0.14629974961280823
1788093367006638800,11.015638916015625,-1.9617819786071777,1.2134475708007812,-0.04331216216087341
1788093367027091700,11.036091796875,0.6011433601379395,-1.5179262161254883,-0.7549166679382324
1788093367037356500,11.0463564453125,0.32197999954223633,-0.754364013671875,-0.2101900577545166
1788093367047570400,11.0565703125,-3.030597686767578,-0.39778995513916016,0.3716341257095337
1788093367057784300,11.066784423828125,-1.7824527025222778,0.6755819320678711,-0.07249057292938232
1788093367068049000,11.077048828125,2.263146162033081,1.6079025268554688,-0.5195717811584473
1788093367078215200,11.087215087890625,2.3695220947265625,-0.687708854675293,-0.044552356004714966
1788093367098348800,11.107348876953125,2.4001379013061523,0.05543041229248047,-0.10263136029243469
1788093367108412200,11.117412109375,-1.2061351537704468,-0.9356117248535156,-0.5418471097946167
1788093367118476300,11.127476318359374,-1.5219898223876953,-0.32478904724121094,-0.9639133214950562
1788093367128640300,11.13764013671875,-2.4741625785827637,0.11649703979492188,-0.8338644504547119
1788093367138803700,11.1478037109375,1.2673487663269043,0.3356752395629883,-1.5562365055084229
1788093367158980400,11.16798046875,0.06606519222259521,1.1307792663574219,-1.018121361732483
1788093367169244700,11.17824462890625,1.3437856435775757,0.19741058349609375,0.09809901565313339
1788093367179508700,11.1885087890625,0.0704418420791626,-2.3329811096191406,2.1198084354400635
1788093367189722600,11.19872265625,0.3869115114212036,-1.5201616287231445,1.0807621479034424
1788093367199936500,11.2089365234375,-1.707149624824524,1.4267358779907227,0.34292781352996826
1788093367210194200,11.219194091796876,-2.7936949729919434,1.6483163833618164,0.14835304021835327
1788093367230436900,11.239436767578125,1.2759805917739868,-0.0700082778930664,0.533720850944519
1788093367240499700,11.249499755859375,-0.0885998010635376,1.0618152618408203,-0.8998352885246277
1788093367250563800,11.259563720703126,-1.9365174770355225,-1.2850618362426758,-0.9197373986244202
1788093367260703200,11.269703125,1.95030677318573,0.5915517807006836,-1.9078251123428345
1788093367270866700,11.27986669921875,0.5168277025222778,0.8911237716674805,-2.0406885147094727
1788093367280828700,11.28982861328125,-1.1002540588378906,-1.1432180404663086,-0.49197888374328613
1788093367291093000,11.300093017578124,0.7626299858093262,-0.33039379119873047,0.1769401878118515
1788093367301332700,11.310332763671875,0.04661870002746582,0.4149332046508789,0.6730028986930847
1788093367311571700,11.32057177734375,-1.1936123371124268,-0.5087089538574219,0.8926938772201538
1788093367321785600,11.33078564453125,-1.722137689590454,-0.6666707992553711,1.0324684381484985
1788093367332050200,11.34105029296875,-1.1966910362243652,0.2789583206176758,0.6074330806732178
1788093367342264300,11.351264404296876,-0.04262208938598633,-0.8888978958129883,-0.5449108481407166
1788093367352498200,11.361498291015625,1.7458667755126953,-1.3549022674560547,-1.1710925102233887
1788093367372588800,11.3815888671875,2.165005683898926,2.0577077865600586,-2.1963746547698975
1788093367382652700,11.391652587890626,-0.9444078207015991,1.7947883605957031,-0.7510557174682617
1788093367392716500,11.401716552734374,-1.7262768745422363,1.119476318359375,0.9025744795799255
1788093367402780000,11.41177978515625,1.3723984956741333,-0.6497011184692383,1.9949522018432617
1788093367422908000,11.431907958984375,2.950024127960205,-1.9084458351135254,-0.6029500365257263
1788093367432971800,11.4419716796875,-1.8939437866210938,0.8014984130859375,-1.8570759296417236
1788093367443185700,11.452185546875,-3.2384302616119385,3.2013845443725586,-3.099611282348633
1788093367453198000,11.462197998046875,-4.932604789733887,1.3300933837890625,-0.7540278434753418
1788093367463286000,11.4722861328125,-1.0790138244628906,0.5551252365112305,0.7938223481178284
1788093367473474800,11.482474853515624,1.336536169052124,-1.3961172103881836,2.665933847427368
1788093367483562800,11.492562744140624,1.74249267578125,-2.9909090995788574,2.6652514934539795
1788093367493827000,11.5028271484375,3.36434268951416,0.44605541229248047,-0.5027685165405273
1788093367503890000,11.512889892578125,2.453749179840088,2.657835006713867,-2.653564691543579
1788093367514078700,11.52307861328125,1.1205334663391113,1.1768131256103516,-2.3001163005828857
1788093367524292400,11.533292236328125,1.719619631767273,0.7105312347412109,-1.1876901388168335
1788093367534557000,11.543556884765625,-0.7092962265014648,-0.042018890380859375,-0.04993331432342529
1788093367544771300,11.553771240234376,-3.3652749061584473,-1.2630281448364258,0.41014203429222107
1788093367565069800,11.57406982421875,-2.7226524353027344,-1.8861784934997559,-0.010558515787124634
1788093367575124000,11.5841240234375,-3.798304557800293,-0.1459941864013672,-0.3328821361064911
1788093367585287700,11.59428759765625,-4.045167922973633,-1.2091474533081055,0.4457436203956604
1788093367595401000,11.60440087890625,-1.8245693445205688,0.04210376739501953,1.298284649848938
1788093367605413400,11.614413330078126,3.1928317546844482,2.5510501861572266,0.14900630712509155
1788093367625891300,11.634891357421875,6.891735076904297,0.02023792266845703,-0.6140068769454956
1788093367636155600,11.64515576171875,4.892866134643555,1.538661003112793,-1.4841535091400146
1788093367646369300,11.655369384765624,-1.8441983461380005,-1.164668083190918,-1.685270071029663
1788093367656507600,11.665507568359375,-1.909398078918457,1.1667470932006836,-1.1416542530059814
1788093367666621000,11.675620849609375,-3.124190330505371,0.3251075744628906,-0.018561886623501778
1788093367686897700,11.695897705078124,1.4868683815002441,-0.5332584381103516,-0.5137296915054321
1788093367697125000,11.706125,1.8581688404083252,0.8833446502685547,-2.009988784790039
1788093367707212300,11.71621240234375,1.5855411291122437,1.6862306594848633,-2.113081216812134
1788093367717276400,11.7262763671875,0.22884011268615723,-0.683650016784668,-0.20340587198734283
1788093367727415300,11.736415283203126,0.170662522315979,-2.0450267791748047,1.2251836061477661
1788093367737654500,11.746654541015625,-0.06701385974884033,-0.043906211853027344,1.2999449968338013
1788093367747918600,11.756918701171875,-2.673966884613037,1.9956817626953125,0.031622737646102905
1788093367768397600,11.7773974609375,1.3357888460159302,1.0293455123901367,-0.7695403099060059
1788093367778661600,11.78766162109375,-0.965923547744751,0.000980377197265625,0.285094290971756
1788093367788875500,11.79787548828125,-0.4606313109397888,-0.14377212524414062,0.8795732855796814
1788093367799089400,11.80808935546875,1.0068159103393555,0.2945566177368164,0.6795126795768738
1788093367809353700,11.818353759765625,0.7045110464096069,1.372696876525879,-0.734510064125061
1788093367829832400,11.83883251953125,-0.3465883731842041,-0.5321149826049805,-0.5267733335494995
1788093367840096500,11.849096435546874,1.5673518180847168,-1.5167512893676758,0.43783634901046753
1788093367850310400,11.859310302734375,0.7928467988967896,-2.6064395904541016,0.3246672749519348
1788093367860524300,11.869524169921876,0.47187793254852295,-1.906693935394287,-0.56181401014328
1788093367870741500,11.879741455078126,0.3895806074142456,0.571558952331543,-1.3274980783462524
1788093367880814300,11.889814453125,-1.9645005464553833,1.3787565231323242,-1.8263205289840698
1788093367890878200,11.899878173828125,-1.9763286113739014,0.8607025146484375,-1.0359236001968384
1788093367900942300,11.9099423828125,-2.136789560317993,0.8350076675415039,0.20891135931015015
1788093367911156200,11.92015625,-0.7494562864303589,0.8069162368774414,1.0097171068191528
1788093367921219000,11.930218994140626,0.63825523853302,-1.1827611923217773,1.9083865880966187
1788093367941496600,11.95049658203125,3.102938652038574,-0.3604764938354492,0.4928820729255676
1788093367951760600,11.9607607421875,0.14659523963928223,-0.8946914672851562,-0.9833205342292786
1788093367972238600,11.981238525390625,-0.171004056930542,1.6090621948242188,-2.261878490447998
1788093367982503000,11.9915029296875,-0.9089334607124329,0.7224483489990234,-1.782971978187561
1788093367992716500,12.001716552734376,-0.28759968280792236,-0.5443944931030273,-0.10781349241733551
1788093368012927500,12.021927490234376,0.6716713905334473,-0.6626272201538086,0.32953038811683655
1788093368033078300,12.042078369140626,0.9369857311248779,0.7940797805786133,0.4447847902774811
1788093368043317200,12.052317138671874,-0.02614438533782959,1.3702220916748047,0.023889940232038498
1788093368053581600,12.06258154296875,-2.3972020149230957,-1.3588590621948242,0.7116872668266296
1788093368063770000,12.07277001953125,-1.2090179920196533,-1.809178352355957,1.2319729328155518
1788093368074009300,12.08300927734375,-1.0859698057174683,-0.05708026885986328,0.49754276871681213
1788093368084273400,12.0932734375,0.14701223373413086,1.2802391052246094,-1.440826654434204
1788093368104716000,12.113716064453126,2.3172457218170166,2.0020179748535156,-0.5368793606758118
1788093368114950100,12.1239501953125,1.1918890476226807,2.169069290161133,0.4781731069087982
1788093368125164000,12.1341640625,-0.1693822145462036,-1.0077381134033203,1.5435004234313965
1788093368135428600,12.1444287109375,1.0952646732330322,-2.6279397010803223,1.4305566549301147
1788093368145642800,12.154642822265625,0.7408857345581055,-1.2986869812011719,-0.32285016775131226
1788093368166095600,12.175095703125,-5.624101638793945,-0.23736286163330078,-1.6565717458724976
1788093368176360700,12.185360595703125,-4.124144554138184,1.9914054870605469,-0.9021401405334473
1788093368186574600,12.19557470703125,-1.430672287940979,1.146336555480957,-0.4739701449871063
1788093368196653800,12.20565380859375,3.2894277572631836,-0.7016887664794922,-0.14157134294509888
1788093368206633000,12.215633056640625,7.865397930145264,-0.2715263366699219,-0.22274017333984375
1788093368226961000,12.2359609375,1.1660557985305786,-0.31011009216308594,1.1718602180480957
1788093368236872700,12.245872802734375,-0.3913677930831909,0.9658937454223633,0.6996848583221436
1788093368247086600,12.256086669921874,-1.8775265216827393,0.641270637512207,0.2743259072303772
1788093368257300500,12.266300537109375,-2.351252555847168,-1.0881757736206055,-0.07275441288948059
1788093368267565000,12.27656494140625,-0.33122169971466064,-0.5119647979736328,-0.8525629043579102
1788093368277779200,12.286779296875,0.5492987632751465,0.1896371841430664,-1.667256474494934
1788093368298257400,12.30725732421875,-1.4891752004623413,-0.6179208755493164,-0.8385053873062134
1788093368308507000,12.3175068359375,0.7228751182556152,0.7740259170532227,0.06538808345794678
1788093368318718700,12.32771875,0.6222269535064697,0.4571571350097656,0.8930891156196594
1788093368328781300,12.33778125,0.6560860872268677,-0.9474754333496094,1.4870282411575317
1788093368338844200,12.34784423828125,0.731959342956543,0.12409591674804688,1.2829787731170654
1788093368349108700,12.358108642578125,0.6009433269500732,1.2691564559936523,0.6685601472854614
1788093368369562000,12.37856201171875,1.0405322313308716,-0.4974708557128906,-0.6289101243019104
1788093368379776000,12.38877587890625,-1.0131632089614868,1.675943374633789,-1.2625645399093628
1788093368390040800,12.399040771484374,-2.542292833328247,1.9841461181640625,-1.156571388244629
1788093368400254700,12.409254638671875,-1.1718544960021973,-0.7574882507324219,0.20855918526649475
1788093368410437600,12.419437744140625,3.0219006538391113,-2.233586311340332,0.8194396495819092
1788093368430554600,12.4395546875,2.387424945831299,-2.2899789810180664,0.43760716915130615
1788093368440617700,12.44961767578125,1.0067164897918701,0.5481243133544922,-0.9860984683036804
1788093368450682000,12.45968212890625,-1.838186264038086,3.849529266357422,-2.025651454925537
1788093368460746000,12.46974609375,-5.313116073608398,0.9416770935058594,-1.432821273803711
1788093368470809300,12.479809326171875,-3.127385139465332,-1.6505823135375977,-0.02983272075653076
1788093368490938000,12.499938232421876,1.4577690362930298,-1.806687355041504,1.0963611602783203
1788093368501002200,12.510002197265624,2.4036436080932617,-1.1011629104614258,0.4246291518211365
1788093368511216000,12.520216064453125,2.1176323890686035,1.967970848083496,-1.0500074625015259
1788093368521279000,12.530279052734375,-0.45169782638549805,3.4579429626464844,-1.5877923965454102
1788093368541556500,12.550556396484374,3.6619648933410645,-1.1439619064331055,1.2795302867889404
1788093368562059500,12.5710595703125,0.6078745126724243,0.37666797637939453,-1.2176766395568848
1788093368572298500,12.581298583984376,-1.5792136192321777,1.8788728713989258,-1.9041725397109985
1788093368592675800,12.60167578125,-2.3759067058563232,-2.481853485107422,-0.2072366327047348
1788093368602890000,12.611889892578125,-3.1861681938171387,-2.2958812713623047,0.6228567957878113
1788093368613154000,12.622154052734375,-3.603487253189087,0.37867164611816406,1.0581245422363281
1788093368623368000,12.632367919921874,-1.7155054807662964,-0.437103271484375,1.0853806734085083
1788093368633556700,12.642556640625,3.2014541625976562,0.4014549255371094,1.0477432012557983
1788093368653883600,12.662883544921876,2.2192373275756836,2.319554328918457,-0.9463547468185425
1788093368663946500,12.672946533203126,2.632369041442871,0.06692218780517578,-0.41091030836105347
1788093368674135300,12.68313525390625,2.3987698554992676,-0.4735431671142578,-0.07287773489952087
1788093368684349200,12.69334912109375,1.4019286632537842,-1.3907432556152344,-0.5289840698242188
1788093368694611000,12.70361083984375,-3.6676061153411865,-1.4084386825561523,0.7263191342353821
1788093368704821000,12.713821044921875,-1.2395299673080444,-0.29563045501708984,-0.9707781672477722
1788093368725324300,12.73432421875,-0.7807756066322327,-0.946624755859375,-0.3359086811542511
1788093368735589000,12.744589111328125,2.7064905166625977,-0.08310127258300781,-0.9845274686813354
1788093368745803000,12.754802978515626,1.226150393486023,1.3206167221069336,0.4566470980644226
1788093368756067300,12.7650673828125,-0.5551525950431824,-1.2164125442504883,0.7338604927062988
1788093368766281200,12.77528125,3.342454671859741,-0.7150392532348633,0.4639730453491211
1788093368776494800,12.785494873046876,0.2169961929321289,1.6767311096191406,-0.5923638939857483
1788093368786759200,12.79575927734375,-1.1315706968307495,2.5762834548950195,-1.770695447921753
1788093368797024300,12.806024169921875,-1.439466118812561,-0.8031177520751953,0.08314169943332672
1788093368807238100,12.816238037109375,1.6870272159576416,-1.0857973098754883,0.21012338995933533
1788093368817452000,12.8264521484375,0.43583083152770996,0.9400482177734375,0.7020478248596191
1788093368827716600,12.836716552734375,-1.0669933557510376,-1.8140511512756348,0.6478490829467773
1788093368837930800,12.8469306640625,-0.008594989776611328,-0.7704010009765625,0.6656593084335327
1788093368848174600,12.857174560546875,-1.5295442342758179,1.336416244506836,0.06489507853984833
1788093368868509700,12.877509765625,4.125922203063965,-2.11824893951416,-0.5897858142852783
1788093368878774500,12.8877744140625,3.6337196826934814,1.9431734085083008,-0.9540418386459351
1788093368888988700,12.89798876953125,-0.3159874677658081,0.9873313903808594,-1.8238853216171265
1788093368899202600,12.90820263671875,-0.9183146357536316,0.7881078720092773,-0.01769503951072693
1788093368909467000,12.918466796875,-2.142765998840332,1.776017189025879,0.4500855803489685
1788093368929945600,12.938945556640626,-2.2884206771850586,-2.368227005004883,2.925442695617676
1788093368940039400,12.949039306640625,2.915140390396118,-3.0061492919921875,1.8194079399108887
1788093368950103800,12.959103759765625,3.945096969604492,-0.3817138671875,0.44734200835227966
1788093368960243000,12.969242919921875,-0.10859191417694092,-1.4750070571899414,-1.556389570236206
1788093368970507300,12.97950732421875,-0.3652456998825073,0.7068996429443359,-2.7023816108703613
1788093368980721700,12.9897216796875,-0.607337236404419,2.5573549270629883,-2.066897392272949
1788093369001023700,13.010023681640625,3.091097831726074,-1.6714668273925781,0.7044268846511841
1788093369011237600,13.020237548828124,2.104419708251953,0.24419021606445312,1.1610299348831177
1788093369021451300,13.030451171875,0.899968147277832,1.9547967910766602,0.4351336359977722
1788093369031715600,13.040715576171875,-2.956244468688965,-0.9399433135986328,1.993831992149353
1788093369041908500,13.050908447265625,0.1898653507232666,0.09148311614990234,1.1535451412200928
1788093369052001500,13.06100146484375,0.37725353240966797,1.7343072891235352,0.6098120808601379
1788093369062065200,13.071065185546875,-0.7578518986701965,-1.0000810623168945,-0.25787782669067383
1788093369072304000,13.08130419921875,2.6959068775177,-1.5496025085449219,-1.3882884979248047
1788093369082316500,13.091316650390626,1.7354950904846191,1.4412841796875,-1.448412537574768
1788093369092430000,13.10143017578125,-0.7167382836341858,1.8181171417236328,-2.150667905807495
1788093369102644200,13.111644287109375,-0.502914547920227,1.2016334533691406,-0.48291730880737305
1788093369112908500,13.121908447265625,-0.781645655632019,0.4175281524658203,1.0678519010543823
1788093369133386500,13.142386474609374,-2.3829002380371094,-3.868692398071289,2.6100549697875977
1788093369143600400,13.152600341796875,-1.5108884572982788,-0.7751874923706055,0.775590717792511
1788093369153852400,13.162852294921874,-1.5452947616577148,1.396810531616211,-0.9737187623977661
1788093369163962000,13.172962158203125,-2.9765465259552,0.7260942459106445,-0.8529041409492493
1788093369174026000,13.18302587890625,0.18300771713256836,0.9272184371948242,-0.9754023551940918
1788093369194154500,13.203154541015625,6.090462684631348,-1.552769660949707,-0.4182829260826111
1788093369204368400,13.213368408203126,6.372732639312744,-0.34998416900634766,0.06735315918922424
1788093369214380500,13.223380615234374,1.7631103992462158,-0.6491231918334961,0.6778159141540527
1788093369224493800,13.233493896484376,-3.461164951324463,1.969522476196289,0.028478890657424927
1788093369234657300,13.2436572265625,-3.037113904953003,-0.26364994049072266,-0.21018555760383606
1788093369244770600,13.2537705078125,0.038414597511291504,-0.38561248779296875,-0.5632033348083496
1788093369265072600,13.27407275390625,1.914266586303711,-2.252882957458496,-1.8188494443893433
1788093369275286500,13.28428662109375,-1.0998051166534424,0.7190408706665039,-1.7433521747589111
1788093369285500200,13.294500244140625,-1.0708177089691162,3.6219348907470703,-1.0745766162872314
1788093369295764700,13.3047646484375,-3.396634101867676,-0.7989025115966797,2.20740008354187
1788093369305979100,13.314979248046875,3.116844654083252,-1.7952466011047363,3.0232222080230713
1788093369326248000,13.335248046875,-1.3199440240859985,0.02910137176513672,1.0467575788497925
1788093369336307200,13.34530712890625,-0.5363728404045105,-0.46719837188720703,-0.3366905450820923
1788093369346496000,13.35549609375,0.9132208824157715,1.8683366775512695,-1.3265724182128906
1788093369356558600,13.36555859375,-0.24486100673675537,1.5325136184692383,-1.5288172960281372
1788093369366621400,13.375621337890625,-0.7540587186813354,-2.537202835083008,-0.08547338843345642
1788093369387074600,13.396074462890626,2.0968737602233887,1.1299123764038086,-1.3568099737167358
1788093369397339400,13.40633935546875,0.0024338960647583008,-1.1551504135131836,-0.9154289960861206
1788093369407553300,13.41655322265625,-0.5977329611778259,-1.0543270111083984,-0.4394035041332245
1788093369417767200,13.42676708984375,-0.5735527276992798,1.9300041198730469,0.3112562894821167
1788093369428031700,13.43703173828125,-4.336180686950684,1.0889453887939453,0.10819140076637268
1788093369438198000,13.447197998046875,-0.6755990982055664,0.3222208023071289,0.6394784450531006
1788093369458532400,13.467532470703125,2.8966126441955566,-2.4275317192077637,0.8080536127090454
1788093369468444000,13.47744384765625,2.600511074066162,-0.3982515335083008,0.3019449710845947
1788093369478658000,13.487657958984375,-0.058252692222595215,1.946293830871582,-1.5914595127105713
1788093369488871700,13.49787158203125,0.07337749004364014,2.6240415573120117,-2.475339651107788
1788093369499085600,13.50808544921875,-0.6590942740440369,-1.0470256805419922,-0.301065593957901
1788093369509350000,13.518349853515625,0.3232845067977905,-2.6049795150756836,0.9549030661582947
1788093369529828600,13.53882861328125,-3.4463274478912354,-0.47856712341308594,-0.5778371095657349
1788093369550165500,13.55916552734375,-2.718348503112793,1.3445024490356445,0.8356119394302368
1788093369560229400,13.5692294921875,-0.5509127974510193,-1.259425163269043,1.086355447769165
1788093369570293500,13.57929345703125,3.9516124725341797,-2.228517532348633,1.0252048969268799
1788093369580357000,13.589357177734374,5.119154930114746,-0.24866008758544922,-0.3213450312614441
1788093369590421200,13.599421142578125,4.667646884918213,2.6932859420776367,-2.12064266204834
1788093369600484000,13.609484130859375,-1.8508319854736328,1.0262460708618164,-0.9076224565505981
1788093369610548700,13.619548828125,-2.306997776031494,0.7090740203857422,-0.37177473306655884
1788093369620612600,13.629612548828124,-3.277218818664551,-0.33690547943115234,1.2333451509475708
1788093369630676200,13.63967626953125,-1.3475985527038574,-1.4958267211914062,1.5022571086883545
1788093369651005200,13.660005126953125,2.3874478340148926,0.3830986022949219,-0.7176206707954407
1788093369660916700,13.669916748046875,-3.2057437896728516,1.206817626953125,-1.233375072479248
1788093369671130600,13.680130615234376,-1.374361276626587,1.4018735885620117,-0.6574578285217285
1788093369681344500,13.690344482421875,0.8572163581848145,0.6903457641601562,0.8592045903205872
1788093369691609000,13.700609130859375,2.4904446601867676,-2.2587122917175293,0.8679443597793579
1788093369701823200,13.7108232421875,2.9506540298461914,-2.227055072784424,0.38466739654541016
1788093369712087600,13.721087646484374,0.4387838840484619,1.648453712463379,-0.8001691699028015
1788093369732551400,13.741551513671874,-4.000357151031494,-0.8108978271484375,-0.11414805054664612
1788093369742638000,13.75163818359375,0.39824843406677246,-1.9675192832946777,0.6843829154968262
1788093369752702200,13.7617021484375,2.4054770469665527,-0.5031852722167969,0.48497870564460754
1788093369762766000,13.77176611328125,1.050087809562683,-0.9088430404663086,0.04361338913440704
1788093369782894000,13.79189404296875,2.3848657608032227,1.6795711517333984,-0.6594424247741699
1788093369792958200,13.801958251953126,-2.3841552734375,1.299128532409668,-0.9735450744628906
1788093369803172000,13.812172119140625,-0.04924201965332031,0.4959840774536133,-0.5059579610824585
1788093369813184300,13.822184326171875,1.8619874715805054,-0.060253143310546875,0.8837785720825195
1788093369823272400,13.8322724609375,0.8253880739212036,-2.182617664337158,1.409937858581543
1788093369833537000,13.842537109375,0.8653764724731445,-1.300288200378418,0.8085041046142578
1788093369843751400,13.85275146484375,-0.7341912388801575,0.8920459747314453,-1.4179110527038574
1788093369864078300,13.873078369140625,-1.896599292755127,-0.30620765686035156,-0.7746767401695251
1788093369874267100,13.88326708984375,3.5005884170532227,-1.2879209518432617,-0.30519717931747437
1788093369884481000,13.89348095703125,4.8121232986450195,-0.3538064956665039,0.7111395597457886
1788093369894739500,13.903739501953124,-1.2001111507415771,-1.6934823989868164,0.5081955194473267
1788093369904919000,13.9139189453125,-0.6252995133399963,2.149104118347168,-0.3966960310935974
1788093369925047300,13.93404736328125,-0.5656532049179077,0.2621498107910156,-0.25033023953437805
1788093369935111200,13.944111083984374,1.2329957485198975,-2.8758492469787598,0.574560284614563
1788093369945174800,13.9541748046875,2.20096492767334,-0.6629562377929688,0.9078741073608398
1788093369955288600,13.96428857421875,-1.0795795917510986,0.9491977691650391,-0.2451316863298416
1788093369965502500,13.97450244140625,-2.3601198196411133,0.38497352600097656,-1.1470518112182617
1788093369985678300,13.99467822265625,0.36161625385284424,-0.0744171142578125,0.5959653854370117
1788093369995942700,14.004942626953126,1.9007619619369507,-3.771181106567383,0.9545671343803406
1788093370006156500,14.015156494140625,3.052433967590332,-0.6376857757568359,-0.2116209864616394
1788093370016370400,14.025370361328125,1.757703185081482,3.320798873901367,-1.066609501838684
1788093370026634800,14.035634765625,-2.97526478767395,2.2998886108398438,-0.7828255891799927
1788093370036847000,14.04584716796875,0.19395661354064941,-0.04519462585449219,1.0032445192337036
1788093370057136400,14.066136474609374,2.755462884902954,-2.163515090942383,0.5588135719299316
1788093370067200300,14.0762001953125,0.7419168949127197,-1.1556243896484375,-0.8970275521278381
1788093370077264400,14.086264404296875,-1.7631739377975464,1.1143007278442383,-2.3594648838043213
1788093370087403300,14.0964033203125,-2.93165922164917,2.458846092224121,-2.2902538776397705
1788093370097642200,14.106642333984375,-1.7752246856689453,0.691523551940918,-0.24067212641239166
1788093370107906600,14.116906494140625,3.4146509170532227,-0.6887054443359375,0.4298315644264221
1788093370128385300,14.13738525390625,0.39602816104888916,-1.5452308654785156,0.6669939756393433
1788093370138649600,14.147649658203125,-2.0994956493377686,1.3698511123657227,0.574802815914154
1788093370148863500,14.157863525390624,-2.8527908325195312,2.585783004760742,0.31003957986831665
1788093370159077400,14.168077392578125,-2.872793674468994,0.055396080017089844,0.25835007429122925
1788093370179556000,14.18855615234375,2.3299527168273926,-1.0324525833129883,-0.3509579598903656
1788093370189820400,14.1988203125,0.9430012702941895,-0.19855308532714844,-2.0565364360809326
1788093370199883300,14.20888330078125,-1.856415033340454,0.8339939117431641,-1.5588020086288452
1788093370210072000,14.219072021484376,-0.5566462278366089,2.2265844345092773,-1.250844955444336
1788093370220210400,14.22921044921875,-1.7448604106903076,0.531463623046875,-0.08221079409122467
1788093370230323700,14.23932373046875,-0.735997200012207,-1.9894099235534668,2.115239143371582
1788093370250801700,14.2598017578125,0.9046624898910522,-0.38518428802490234,1.3888829946517944
1788093370260931600,14.269931640625,-1.9963147640228271,0.7890586853027344,-0.7733978033065796
1788093370271145500,14.2801455078125,-0.8040476441383362,1.6471433639526367,-1.4937067031860352
1788093370281208300,14.290208251953125,2.1761484146118164,1.5230350494384766,-0.45314085483551025
1788093370291271400,14.300271484375,3.9208343029022217,-1.8006467819213867,0.06660504639148712
1788093370301485800,14.31048583984375,5.617175102233887,-0.4565773010253906,0.1873515248298645
1788093370332227800,14.341227783203125,-5.425681114196777,1.162510871887207,-0.67293381690979
1788093370342441700,14.351441650390624,-2.6678831577301025,0.5602207183837891,-0.32049795985221863
1788093370352696000,14.361696044921874,0.1453874111175537,-1.7607903480529785,0.9088739156723022
1788093370362828800,14.371828857421875,2.833606243133545,-2.8851165771484375,1.2505745887756348
1788093370382956800,14.391956787109375,1.1207377910614014,4.1743669509887695,-1.4273059368133545
1788093370393021000,14.40202099609375,-2.6242661476135254,1.6661796569824219,-0.5168160796165466
1788093370403234800,14.41223486328125,2.205518960952759,-0.39107418060302734,0.7661631107330322
