time,seconds_elapsed,z,y,x
1788093356146187300,0.155187255859375,0.6592226624488831,11.431710243225098,-0.7381857633590698
1788093356156250400,0.16525048828125,1.6354942321777344,8.760123252868652,-0.275174617767334
1788093356166313500,0.1753134765625,3.8081772327423096,8.944371223449707,-1.3914263248443604
1788093356176376600,0.18537646484375,1.6630117893218994,9.637093544006348,-1.3770694732666016
1788093356186439700,0.195439697265625,2.306680917739868,9.54496955871582,-0.605384111404419
1788093356196502800,0.205502685546875,3.2626137733459473,10.16590690612793,-0.7034898400306702
1788093356206566000,0.21556591796875,-0.6675975322723389,9.029315948486328,-1.098305583000183
1788093356216629000,0.22562890625,1.3770694732666016,11.264212608337402,-0.28594231605529785
1788093356226692000,0.235692138671875,1.7742780447006226,8.250452041625977,0.3756731450557709
1788093356236755200,0.245755126953125,4.36091947555542,9.432506561279297,-0.16749759018421173
1788093356246818300,0.255818359375,2.043470621109009,8.803194046020508,-0.40319061279296875
1788093356256881400,0.26588134765625,2.812762975692749,10.512866020202637,-0.48813581466674805
1788093356266944800,0.27594482421875,1.5014961957931519,9.2255277633667,-0.4989035129547119
1788093356277008000,0.2860078125,1.810170292854309,10.217352867126465,0.02632104977965355
1788093356287071000,0.296071044921875,0.004785645287483931,9.528220176696777,-0.6807580590248108
1788093356297134000,0.306134033203125,2.2671995162963867,9.839286804199219,-0.607776939868927
1788093356307197200,0.316197265625,3.7663028240203857,9.159725189208984,-0.14715859293937683
1788093356317260300,0.32626025390625,2.609373092651367,8.623732566833496,-0.21415762603282928
1788093356327323400,0.336323486328125,1.939382791519165,10.13599681854248,-0.8733802437782288
1788093356337386500,0.346386474609375,1.7742780447006226,9.573683738708496,-1.01814603805542
1788093356347449600,0.35644970703125,1.903490424156189,10.204192161560059,-0.6436693072319031
1788093356357512700,0.3665126953125,0.3278166949748993,9.469595909118652,-0.27038896083831787
1788093356367575800,0.376575927734375,1.5074782371520996,10.875378608703613,-0.8315058946609497
1788093356377639000,0.386638916015625,1.2681959867477417,8.683553695678711,-0.39481574296951294
1788093356387702300,0.396702392578125,4.941178798675537,9.198010444641113,-0.8039883971214294
1788093356397765400,0.406765380859375,2.616551637649536,8.638090133666992,0.607776939868927
1788093356407828500,0.416828369140625,2.3030917644500732,10.16710376739502,-0.2715853750705719
1788093356417891300,0.426891357421875,0.849452018737793,10.082158088684082,0.36251261830329895
1788093356427954400,0.436954345703125,0.7740781307220459,9.966106414794922,-0.09092725813388824
1788093356438017800,0.447017822265625,1.4416756629943848,9.390632629394531,0.32303106784820557
1788093356448081000,0.457080810546875,1.4763715267181396,9.256634712219238,0.30508488416671753
1788093356458144000,0.46714404296875,3.589233875274658,10.710273742675781,-0.8470591902732849
1788093356468207000,0.47720703125,2.1846470832824707,7.910671710968018,0.2991028428077698
1788093356478270200,0.487270263671875,3.511467218399048,9.667003631591797,-0.34217363595962524
1788093356488333300,0.497333251953125,1.5553346872329712,9.418149948120117,-0.064606212079525
1788093356498396400,0.507396484375,1.94297194480896,10.505687713623047,-0.5910272002220154
1788093356508459500,0.51745947265625,0.7322037220001221,9.487542152404785,-0.5395814776420593
1788093356518522600,0.527522705078125,1.2969099283218384,10.338190078735352,-0.5647061467170715
1788093356528585700,0.537585693359375,0.9774680733680725,9.253045082092285,-0.3397808074951172
1788093356538648800,0.54764892578125,3.266202926635742,10.776076316833496,-0.7776673436164856
1788093356548712000,0.5577119140625,1.8113667964935303,8.056633949279785,0.5096712112426758
1788093356558775300,0.567775390625,3.7292141914367676,9.236295700073242,-0.363709032535553
1788093356568838400,0.57783837890625,3.5916268825531006,9.123832702636719,0.32542386651039124
1788093356578901500,0.587901611328125,1.8029918670654297,10.201799392700195,-0.1459621787071228
1788093356588964600,0.597964599609375,0.10169496387243271,10.303494453430176,-0.40677985548973083
1788093356599027700,0.60802783203125,0.9284151792526245,10.193424224853516,-0.6532405614852905
1788093356609090800,0.6180908203125,2.5232315063476562,8.462217330932617,0.25363919138908386
1788093356619154000,0.62815380859375,2.6524438858032227,9.460023880004883,-0.8745766878128052
1788093356629217000,0.638217041015625,2.641676187515259,10.936395645141602,-0.7740781307220459
1788093356639280000,0.648280029296875,0.5335994362831116,8.120043754577637,0.14715859293937683
1788093356649343200,0.65834326171875,3.9122650623321533,9.812965393066406,-0.0933200865983963
1788093356659406300,0.66840625,2.495713949203491,8.973084449768066,0.08614161610603333
1788093356669469400,0.678469482421875,2.9012975692749023,10.228120803833008,-0.4127618968486786
1788093356679532500,0.688532470703125,1.3112667798995972,9.698110580444336,-0.6017948985099792
1788093356689595600,0.698595703125,0.5156532526016235,9.69093132019043,-0.7597211599349976
1788093356699658800,0.70865869140625,1.887937068939209,10.007980346679688,-0.8410771489143372
1788093356709721900,0.718721923828125,1.9453648328781128,9.773484230041504,-0.4821537733078003
1788093356719785000,0.728784912109375,2.548356056213379,9.403793334960938,-0.6580262184143066
1788093356729848300,0.738848388671875,2.723032236099243,8.62612533569336,-0.2069791555404663
1788093356739911400,0.748911376953125,3.267399311065674,9.103493690490723,-0.698704183101654
1788093356749974500,0.758974609375,2.633301258087158,9.885947227478027,-0.7369893789291382
1788093356760037600,0.76903759765625,0.2967100143432617,10.401599884033203,-0.7992027401924133
1788093356770100700,0.779100830078125,-0.5120640397071838,10.305887222290039,-0.014356935396790504
1788093356790227000,0.79922705078125,2.764906644821167,8.37727165222168,1.657029628753662
1788093356800290000,0.8092900390625,4.033102512359619,9.510273933410645,0.9080761671066284
1788093356810353200,0.819353271484375,3.4061830043792725,10.208977699279785,0.6125625967979431
1788093356820416300,0.829416259765625,0.9475577473640442,8.517251968383789,-0.12203395366668701
1788093356830479400,0.839479248046875,3.091526746749878,9.196813583374023,-0.5934200286865234
1788093356840542500,0.84954248046875,3.460021495819092,9.482755661010742,-1.077966570854187
1788093356850605600,0.85960546875,2.383251428604126,9.820143699645996,-1.5445669889450073
1788093356860668700,0.869668701171875,0.3002992272377014,10.01037311553955,-1.5445669889450073
1788093356870731800,0.879731689453125,0.17946170270442963,10.645668029785156,-1.4177473783493042
1788093356880795000,0.889794921875,0.8422735929489136,9.69093132019043,-0.18783657252788544
1788093356890858000,0.89985791015625,2.7493531703948975,9.239884376525879,-0.20578274130821228
1788093356900921000,0.909921142578125,2.819941520690918,9.734002113342285,0.4713860750198364
1788093356910984400,0.919984375,2.2779672145843506,9.192028045654297,0.7561319470405579
1788093356921047600,0.930047607421875,2.489732027053833,8.97667407989502,1.2873386144638062
1788093356931110700,0.940110595703125,2.932404041290283,8.847461700439453,1.3040883541107178
1788093356941173800,0.950173828125,3.2063822746276855,10.133604049682617,0.5682953596115112
1788093356951236900,0.96023681640625,1.466800332069397,10.28315544128418,-0.1986042857170105
1788093356961300000,0.970300048828125,-0.1746760457754135,9.996016502380371,-0.6903293132781982
1788093356971363000,0.980363037109375,0.7872386574745178,10.549955368041992,-0.6843472719192505
1788093356981426200,0.99042626953125,2.5459632873535156,8.522037506103516,-0.22851456701755524
1788093356991489300,1.0004892578125,4.810770034790039,9.091529846191406,0.3038884699344635
1788093357001552400,1.010552490234375,2.090130567550659,9.237491607666016,-0.2392822653055191
1788093357011615500,1.020615478515625,1.2203395366668701,10.969895362854004,-1.054038405418396
1788093357021678600,1.0306787109375,-0.6029912829399109,8.772088050842285,-0.25722843408584595
1788093357031741700,1.04074169921875,3.4133615493774414,9.485149383544922,0.10408778488636017
1788093357041804800,1.0508046875,4.526023864746094,8.83669376373291,0.39960137009620667
1788093357051868000,1.060867919921875,3.6191442012786865,9.293723106384277,-0.038285162299871445
1788093357061931000,1.070930908203125,0.5527420043945312,10.412367820739746,-0.6101697683334351
1788093357071994000,1.080994140625,-0.7393822073936462,11.235498428344727,-1.0444670915603638
1788093357082057500,1.091057373046875,0.062213387340307236,9.343972206115723,-0.007178467698395252
1788093357092120600,1.10112060546875,3.1585259437561035,9.212367057800293,-0.07896314561367035
1788093357102183700,1.11118359375,3.730410575866699,9.767501831054688,-0.07657032459974289
1788093357112246500,1.12124658203125,2.1918256282806396,9.042476654052734,0.15912270545959473
1788093357122309600,1.1313095703125,2.0542383193969727,9.059226989746094,0.02871387079358101
1788093357132373000,1.141373046875,2.1954147815704346,8.854640007019043,0.1423729509115219
1788093357142436000,1.15143603515625,2.9694929122924805,10.192228317260742,-0.24406790733337402
1788093357152499200,1.161499267578125,1.526620864868164,10.046265602111816,-0.6771687865257263
1788093357162562300,1.171562255859375,0.13639089465141296,10.140782356262207,-0.8267202377319336
1788093357172625400,1.18162548828125,0.26201409101486206,10.18026351928711,-0.47617170214653015
1788093357182688500,1.1916884765625,3.0759735107421875,9.607182502746582,-0.31465616822242737
1788093357192751600,1.201751708984375,3.5617165565490723,8.149953842163086,0.8470591902732849
1788093357202814700,1.211814697265625,3.4241292476654053,9.589237213134766,-0.02153540402650833
1788093357212877800,1.2218779296875,1.0205388069152832,10.595418930053711,-0.3529413342475891
1788093357222941000,1.23194091796875,-0.7094719409942627,9.80937671661377,-0.4618147611618042
1788093357233004000,1.242004150390625,0.9499505758285522,8.693124771118164,0.07657032459974289
1788093357243067100,1.252067138671875,4.091726779937744,9.487542152404785,0.015553346835076809
1788093357253130200,1.262130126953125,4.386044025421143,9.011369705200195,0.16031911969184875
1788093357263193300,1.272193359375,1.8699909448623657,9.988838195800781,-0.14356936514377594
1788093357273256400,1.28225634765625,-0.9750752449035645,10.790433883666992,-0.5587241053581238
1788093357283319600,1.292319580078125,-0.6999006271362305,10.798809051513672,-0.8913264274597168
1788093357293382700,1.302382568359375,2.007578134536743,8.648857116699219,-0.15553347766399384
1788093357303446000,1.312446044921875,4.618147850036621,8.9312105178833,-0.41515472531318665
1788093357313509000,1.322509033203125,4.395615100860596,9.627521514892578,-0.1495514214038849
1788093357323572200,1.332572265625,1.810170292854309,8.964710235595703,0.015553346835076809
1788093357333635300,1.34263525390625,0.9272187948226929,9.448060035705566,-0.27756741642951965
1788093357343698400,1.352698486328125,1.1258230209350586,9.33559799194336,-0.04307080805301666
1788093357353761500,1.362761474609375,3.074777126312256,10.015159606933594,-0.1052841991186142
1788093357363824600,1.37282470703125,2.100898265838623,10.140782356262207,-0.16390834748744965
1788093357373887700,1.3828876953125,0.11485548317432404,10.16710376739502,-0.26440688967704773
1788093357383950800,1.392950927734375,-0.10767702013254166,10.370492935180664,-0.11724831163883209
1788093357394014000,1.403013916015625,2.5399811267852783,9.638289451599121,0.07417750358581543
1788093357404077000,1.4130771484375,3.460021495819092,8.298309326171875,0.008374879136681557
1788093357414140200,1.42314013671875,4.695914268493652,9.394221305847168,-0.11485548317432404
1788093357424203300,1.433203369140625,1.6187444925308228,9.481559753417969,-3.160918712615967
1788093357434266400,1.443266357421875,0.5312066078186035,10.794022560119629,-1.4189438819885254
1788093357444329500,1.45332958984375,-0.4905286431312561,8.767302513122559,0.48574298620224
1788093357454392600,1.463392578125,3.493520975112915,8.930013656616211,1.412961721420288
1788093357464455700,1.47345556640625,5.437689304351807,9.135796546936035,-1.537388563156128
1788093357474518800,1.483518798828125,4.060619831085205,9.488738059997559,-2.0709879398345947
1788093357484582000,1.493581787109375,0.5419743061065674,10.315458297729492,-0.9080761671066284
1788093357494645000,1.50364501953125,-0.5359922647476196,11.290534019470215,-0.16510476171970367
1788093357504708000,1.5137080078125,-0.12323036789894104,9.20997428894043,0.4486542344093323
1788093357514771200,1.523771240234375,4.151547431945801,9.144171714782715,-0.035892341285943985
1788093357524834600,1.53383447265625,4.12761926651001,8.982656478881836,-1.2203395366668701
1788093357534897700,1.543897705078125,2.1786649227142334,9.69093132019043,0.11724831163883209
1788093357544960800,1.553960693359375,1.8735800981521606,9.176474571228027,-1.222732424736023
1788093357555024000,1.56402392578125,0.5312066078186035,8.81515884399414,-0.6448656916618347
1788093357565086700,1.574086669921875,3.528217077255249,9.69212818145752,0.6065805554389954
1788093357575150000,1.584150146484375,2.871387243270874,10.222138404846191,-1.046859860420227
1788093357585213200,1.594213134765625,0.5970092415809631,10.040284156799316,-1.8005990982055664
1788093357595276300,1.6042763671875,-0.1423729509115219,10.084550857543945,-1.4476577043533325
1788093357605339400,1.61433935546875,1.1772687435150146,10.453045845031738,-0.914058268070221
1788093357615402500,1.624402587890625,1.9513468742370605,9.022137641906738,0.37447673082351685
1788093357625465600,1.634465576171875,3.3894333839416504,8.967103004455566,2.0470597743988037
1788093357635528700,1.64452880859375,1.7132610082626343,9.844072341918945,1.6689938306808472
1788093357645591800,1.654591796875,1.0360921621322632,10.829915046691895,0.7334001660346985
1788093357655655000,1.664655029296875,-0.038285162299871445,8.623732566833496,0.30508488416671753
1788093357665718000,1.674718017578125,3.625126361846924,8.818747520446777,-0.058624155819416046
1788093357675781000,1.684781005859375,5.438885688781738,8.863015174865723,-0.3577269911766052
1788093357685844200,1.69484423828125,4.2831525802612305,9.573683738708496,-1.1461620330810547
1788093357695907300,1.7049072265625,0.058624155819416046,10.344172477722168,-1.7611174583435059
1788093357705970400,1.714970458984375,-1.0947163105010986,11.571690559387207,-2.417947292327881
1788093357716033500,1.725033447265625,-0.6017948985099792,9.34277629852295,-1.690529227256775
1788093357726096600,1.7350966796875,4.620540618896484,8.927620887756348,-1.3758729696273804
1788093357736159700,1.74515966796875,4.374079704284668,8.811569213867188,-0.5682953596115112
1788093357746223000,1.75522314453125,2.837887763977051,9.355937004089355,-0.9116654396057129
1788093357756286000,1.765285888671875,1.4452649354934692,9.473184585571289,-0.08374879509210587
1788093357766349000,1.77534912109375,0.7645068168640137,9.025727272033691,0.7836494445800781
1788093357776412200,1.785412109375,2.42512583732605,9.611968994140625,0.6795616149902344
1788093357786475300,1.795475341796875,3.1310083866119385,10.299904823303223,0.44027936458587646
1788093357796538600,1.80553857421875,1.3208380937576294,9.872786521911621,0.641276478767395
1788093357806601700,1.815601806640625,-0.11964113265275955,10.200602531433105,0.6484549641609192
1788093357816664800,1.825664794921875,0.851844847202301,9.814162254333496,0.9774680733680725
1788093357826728000,1.83572802734375,4.180261135101318,9.418149948120117,0.589830756187439
1788093357836791000,1.845791015625,3.658625841140747,7.592426300048828,1.0923235416412354
1788093357846854100,1.855854248046875,3.6777684688568115,9.956535339355469,-0.5108676552772522
1788093357856917200,1.865917236328125,0.42352959513664246,10.762916564941406,-1.038485050201416
1788093357866980400,1.87598046875,-1.3639088869094849,9.742377281188965,-1.3507484197616577
1788093357877043500,1.88604345703125,1.0600204467773438,9.065208435058594,-0.3002992272377014
1788093357887106600,1.8961064453125,5.065605640411377,8.894122123718262,0.537188708782196
1788093357897169700,1.906169677734375,5.710471153259277,9.026923179626465,0.4307080805301666
1788093357907232800,1.916232666015625,2.159522533416748,9.805787086486816,-0.22851456701755524
1788093357917295900,1.9262958984375,-1.2681959867477417,11.10748291015625,-0.6640082597732544
1788093357927359000,1.93635888671875,-0.8015955686569214,11.027322769165039,-0.6963114142417908
1788093357937422000,1.946422119140625,1.7156537771224976,8.50289535522461,0.5431707501411438
1788093357947485200,1.956485107421875,4.2987060546875,8.904889106750488,0.2679961323738098
1788093357957548300,1.96654833984375,4.125226020812988,9.675378799438477,0.36251261830329895
1788093357967611400,1.976611328125,1.8352949619293213,8.971888542175293,0.3840480446815491
1788093357977674500,1.986674560546875,1.1198409795761108,9.399007797241211,-0.27397820353507996
1788093357987737600,1.996737548828125,1.6163517236709595,9.302098274230957,-0.14356936514377594
1788093357997800700,2.00680078125,3.3882367610931396,10.241280555725098,-0.38285163044929504
1788093358007863800,2.01686376953125,1.8831514120101929,9.907482147216797,-0.794417142868042
1788093358017927200,2.02692724609375,-0.17228323221206665,10.092926025390625,-0.8757730722427368
1788093358027990000,2.036989990234375,-0.2871387302875519,10.700702667236328,-0.39601215720176697
1788093358038053000,2.04705322265625,2.400001049041748,9.54496955871582,-0.39122650027275085
1788093358048116200,2.0571162109375,3.8021950721740723,7.9860453605651855,0.46899324655532837
1788093358058179300,2.067179443359375,3.851248025894165,9.463613510131836,-0.09930214285850525
1788093358068242700,2.07724267578125,1.9357935190200806,10.357333183288574,-0.42711883783340454
1788093358078305800,2.087305908203125,-0.1782652884721756,9.330811500549316,-0.35533416271209717
1788093358088369000,2.097368896484375,1.6115660667419434,8.882157325744629,-0.14715859293937683
1788093358098432000,2.107431884765625,4.473381996154785,9.244669914245605,0.06580262631177902
1788093358108494800,2.117494873046875,4.5475592613220215,9.316454887390137,-0.1052841991186142
1788093358118558200,2.12755810546875,1.456032633781433,9.993623733520508,-0.6807580590248108
1788093358128621300,2.137621337890625,-0.745364248752594,11.062019348144531,-0.9858429431915283
1788093358138684400,2.147684326171875,-1.1808580160140991,10.249655723571777,-1.2239288091659546
1788093358148747500,2.15774755859375,2.801995277404785,9.096315383911133,-0.9248259663581848
1788093358158810600,2.167810546875,3.757927894592285,8.69791030883789,-0.5491527915000916
1788093358168873700,2.177873779296875,4.054637908935547,9.647860527038574,-0.6376872062683105
1788093358178936800,2.187936767578125,2.100898265838623,9.06999397277832,0.29790642857551575
1788093358189000000,2.198,1.2239288091659546,9.090332984924316,0.5108676552772522
1788093358199063000,2.20806298828125,2.132004976272583,9.328418731689453,0.48574298620224
1788093358209126100,2.218126220703125,3.0173492431640625,10.309475898742676,-0.27038896083831787
1788093358219189200,2.228189208984375,1.3962119817733765,10.161121368408203,-1.9310078620910645
1788093358229252400,2.23825244140625,-0.13280165195465088,10.022337913513184,-1.726421594619751
1788093358239315500,2.2483154296875,0.6508477330207825,10.059426307678223,-0.15314064919948578
1788093358249378600,2.258378662109375,3.6849467754364014,9.839286804199219,0.1782652884721756
1788093358259441700,2.268441650390625,2.92283296585083,7.741977691650391,0.6364908218383789
1788093358269504800,2.2785048828125,3.562912940979004,9.992427825927734,-0.9284151792526245
1788093358279568000,2.28856787109375,1.3196417093276978,10.555936813354492,-1.2789636850357056
1788093358289631000,2.298630859375,0.4055834412574768,8.998209953308105,-0.008374879136681557
1788093358299694000,2.308694091796875,1.6319050788879395,8.863015174865723,0.6999006271362305
1788093358309757200,2.318757080078125,4.177868366241455,9.564111709594727,-0.550349235534668
1788093358319820300,2.3288203125,4.01754903793335,9.418149948120117,-2.2504496574401855
1788093358329883400,2.33888330078125,1.6845471858978271,9.847661972045898,-1.8999011516571045
1788093358339946800,2.34894677734375,0.3768695592880249,10.749755859375,-0.4414757788181305
1788093358350009600,2.359009521484375,0.3074777126312256,9.53061294555664,0.3684946894645691
1788093358360072700,2.36907275390625,3.2446675300598145,9.53659439086914,0.28235307335853577
1788093358370135800,2.3791357421875,3.0305099487304688,8.839086532592773,-1.0360921621322632
1788093358380199000,2.389198974609375,3.040081262588501,9.42772102355957,-0.43549370765686035
1788093358390262300,2.39926220703125,2.060220241546631,9.31047248840332,-0.4546363055706024
1788093358400325400,2.409325439453125,1.6498512029647827,8.755337715148926,0.22971096634864807
1788093358410388500,2.419388427734375,1.9441684484481812,9.523433685302734,-0.4821537733078003
1788093358420451300,2.429451416015625,4.143172264099121,10.25204849243164,-0.4498506486415863
1788093358430514400,2.439514404296875,0.4498506486415863,10.065408706665039,-2.379662036895752
1788093358440577800,2.449577880859375,-0.21655045449733734,9.975677490234375,-0.8374879360198975
1788093358450641000,2.459640869140625,1.062413215637207,10.228120803833008,0.2871387302875519
1788093358460704000,2.4697041015625,2.6452653408050537,9.257830619812012,-0.6281159520149231
1788093358470767000,2.47976708984375,3.64546537399292,8.62612533569336,1.8005990982055664
1788093358480830200,2.489830322265625,2.2468605041503906,9.743574142456055,1.1018948554992676
1788093358490893300,2.499893310546875,0.5611169338226318,10.98185920715332,-0.06939185410737991
1788093358500956400,2.509956298828125,-0.5443671345710754,9.056833267211914,-0.05383851006627083
1788093358511019500,2.52001953125,2.7984061241149902,8.998209953308105,0.05742774158716202
1788093358521082600,2.53008251953125,4.969892501831055,9.013762474060059,-1.6366907358169556
1788093358531145700,2.540145751953125,4.135993957519531,9.671789169311523,-2.616551637649536
1788093358541208800,2.550208740234375,0.4055834412574768,10.162318229675293,-2.1104695796966553
1788093358551272000,2.56027197265625,-0.8841479420661926,11.132607460021973,-0.698704183101654
1788093358561335000,2.5703349609375,-0.745364248752594,9.589237213134766,0.1818545162677765
1788093358571398100,2.580398193359375,3.59043025970459,9.352347373962402,0.35413774847984314
1788093358581461200,2.590461181640625,4.068994998931885,8.682356834411621,-0.9523434042930603
1788093358591524400,2.6005244140625,3.5844483375549316,9.367900848388672,-0.8063812255859375
1788093358601587500,2.61058740234375,2.3916261196136475,9.212367057800293,-0.14356936514377594
1788093358611650600,2.620650634765625,1.3938192129135132,8.880961418151855,0.3002992272377014
1788093358621713700,2.630713623046875,2.6536402702331543,9.507881164550781,0.20817556977272034
1788093358631776800,2.64077685546875,2.9862427711486816,10.077372550964355,-1.1186445951461792
1788093358641839900,2.65083984375,1.2598211765289307,9.893125534057617,-1.4069796800613403
1788093358651903000,2.660903076171875,-0.22372891008853912,10.059426307678223,-1.2574282884597778
1788093358661966000,2.670966064453125,0.592223584651947,10.156335830688477,-1.3244273662567139
1788093358672029200,2.681029296875,3.8225340843200684,9.471988677978516,-1.2490534782409668
1788093358682092300,2.69109228515625,3.4205398559570312,7.494320392608643,0.5682953596115112
1788093358692155400,2.7011552734375,3.449253797531128,10.047462463378906,-0.44386860728263855
1788093358702218500,2.711218505859375,0.6652047038078308,10.928021430969238,-0.381655216217041
1788093358712281600,2.721281494140625,-1.0157532691955566,9.134600639343262,-0.3888336718082428
1788093358722344700,2.7313447265625,1.8352949619293213,9.007781028747559,0.8003991842269897
1788093358732407800,2.74140771484375,4.463810443878174,9.075976371765137,1.3028919696807861
1788093358742471000,2.751470947265625,5.234299659729004,9.391828536987305,1.2598211765289307
1788093358752534000,2.761533935546875,1.7754744291305542,9.726823806762695,0.4582255482673645
1788093358762597400,2.771597412109375,-0.1256231814622879,11.534601211547852,-0.7369893789291382
1788093358772660500,2.781660400390625,-1.2203395366668701,9.875179290771484,-1.0085747241973877
1788093358782723300,2.791723388671875,3.421736478805542,9.33559799194336,-0.9511470198631287
1788093358792786400,2.801786376953125,3.737588882446289,8.537590980529785,-0.36610186100006104
1788093358802849500,2.811849609375,4.899304389953613,9.148957252502441,-0.6173482537269592
1788093358812913000,2.821912841796875,2.115255117416382,9.10110092163086,-0.364905446767807
1788093358822976000,2.83197607421875,0.22612173855304718,9.323633193969727,0.3756731450557709
1788093358833039000,2.8420390625,1.0528420209884644,9.980463027954102,1.1353943347930908
1788093358843102200,2.852102294921875,2.0997018814086914,10.805987358093262,1.404586911201477
1788093358853165000,2.8621650390625,0.8422735929489136,9.873982429504395,-0.1902294009923935
1788093358863228400,2.872228515625,0.8027920126914978,9.826126098632812,-0.5515456199645996
1788093358873291500,2.88229150390625,3.418147087097168,10.2747802734375,0.23808585107326508
1788093358883354600,2.892354736328125,2.9898319244384766,7.503891944885254,1.1940184831619263
1788093358893417700,2.902417724609375,4.705485820770264,9.53659439086914,0.6317051649093628
1788093358903480800,2.912480712890625,0.8757730722427368,10.001998901367188,0.2189432680606842
1788093358913544000,2.9225439453125,-0.49172505736351013,10.256834030151367,-1.2574282884597778
1788093358923607000,2.93260693359375,0.38763725757598877,8.754141807556152,-1.085145115852356
1788093358933670100,2.942670166015625,3.741178274154663,9.34277629852295,-0.6879364848136902
1788093358943733200,2.952733154296875,4.6408796310424805,8.986245155334473,-0.5359922647476196
1788093358953796400,2.96279638671875,2.8283164501190186,9.927821159362793,-1.0145567655563354
1788093358963859500,2.972859375,0.09571290761232376,10.87418270111084,-1.357926845550537
1788093358973922600,2.982922607421875,-1.4033905267715454,10.526026725769043,-1.5864413976669312
1788093358983985700,2.992985595703125,2.0889341831207275,9.760323524475098,-0.7058826684951782
1788093358994048800,3.003048828125,2.640479803085327,8.628518104553223,-0.25722843408584595
1788093359004112000,3.01311181640625,4.033102512359619,9.803394317626953,-0.2225325107574463
1788093359014175000,3.023175048828125,2.317448616027832,8.711071014404297,0.7322037220001221
1788093359024238000,3.033238037109375,2.434697151184082,8.82233715057373,0.6927221417427063
1788093359034301200,3.04330126953125,2.772084951400757,9.239884376525879,0.5742774605751038
1788093359044364300,3.0533642578125,2.5328028202056885,10.534401893615723,0.0023928226437419653
1788093359054427400,3.063427490234375,0.6376872062683105,10.107282638549805,-0.3852444589138031
1788093359064490500,3.073490478515625,-0.6759724020957947,10.411170959472656,-0.914058268070221
1788093359074553600,3.0835537109375,0.5706881880760193,10.37647533416748,-0.7848458290100098
1788093359084616700,3.09361669921875,2.8941190242767334,8.8438720703125,-0.6293123364448547
1788093359094679800,3.1036796875,4.895715236663818,8.449056625366211,0.32303106784820557
1788093359104743000,3.113742919921875,2.991028308868408,9.437292098999023,0.16390834748744965
1788093359114806000,3.123805908203125,1.2179467678070068,10.706685066223145,-0.45104706287384033
1788093359124869000,3.133869140625,-0.7908278703689575,8.943174362182617,0.20458634197711945
1788093359134932200,3.14393212890625,3.0448668003082275,9.109476089477539,0.1698904037475586
1788093359144995300,3.153995361328125,4.978267669677734,8.693124771118164,-0.15553347766399384
1788093359155058400,3.164058349609375,4.549952030181885,9.512666702270508,-0.9080761671066284
1788093359165121500,3.17412158203125,0.23688943684101105,10.277173042297363,-1.0444670915603638
1788093359175184600,3.1841845703125,-1.2681959867477417,11.775080680847168,-1.7168502807617188
1788093359185248000,3.194248046875,-1.7467604875564575,9.403793334960938,-0.9152546525001526
1788093359195311000,3.20431103515625,3.397808074951172,9.498309135437012,-1.0719845294952393
1788093359205374200,3.214374267578125,3.5581271648406982,9.025727272033691,-0.28115665912628174
1788093359215437000,3.22443701171875,3.733999729156494,9.332008361816406,-0.3122633695602417
1788093359225500200,3.234500244140625,2.5710878372192383,8.774480819702148,0.5204389095306396
1788093359235563500,3.2445634765625,2.1846470832824707,8.793622970581055,0.7968099117279053
1788093359245626600,3.254626708984375,2.6739792823791504,9.854840278625488,0.4713860750198364
1788093359255689700,3.264689697265625,2.066202402114868,10.52483081817627,-0.09810572862625122
1788093359265752800,3.2747529296875,0.19740787148475647,10.161121368408203,-0.48813581466674805
1788093359275816000,3.28481591796875,-0.380458801984787,10.207781791687012,-0.607776939868927
1788093359285879000,3.294879150390625,2.5220351219177246,10.365707397460938,-0.6891329288482666
1788093359295942100,3.304942138671875,2.6392834186553955,7.758727550506592,-0.21415762603282928
1788093359306005200,3.315005126953125,5.069194793701172,9.425328254699707,-0.137587308883667
1788093359316068400,3.325068359375,0.7860422134399414,9.688538551330566,0.21296121180057526
1788093359326131500,3.33513134765625,0.6747759580612183,10.928021430969238,-0.6293123364448547
1788093359336194600,3.345194580078125,-0.13280165195465088,8.258827209472656,0.4953143000602722
1788093359346257700,3.355257568359375,4.632504463195801,9.328418731689453,0.4630111753940582
1788093359356320800,3.36532080078125,4.856233596801758,8.865407943725586,0.259621262550354
1788093359366383900,3.3753837890625,2.9312076568603516,9.663414001464844,-0.0849452018737793
1788093359376447000,3.385447021484375,-0.34695929288864136,10.859825134277344,-0.24646073579788208
1788093359386510000,3.395510009765625,-1.5445669889450073,11.059626579284668,-0.8183453679084778
1788093359396573200,3.4055732421875,1.32921302318573,9.722038269042969,-0.33499518036842346
1788093359406636300,3.41563623046875,2.3976082801818848,8.755337715148926,-0.6759724020957947
1788093359416699400,3.425699462890625,3.875176191329956,9.891928672790527,-0.9619147181510925
1788093359426762500,3.435762451171875,2.4227328300476074,8.776873588562012,-0.397208571434021
1788093359436825600,3.44582568359375,2.3736801147460938,8.779266357421875,-0.33858439326286316
1788093359446888700,3.455888671875,2.550748825073242,9.08674430847168,-0.16031911969184875
1788093359456952000,3.4659521484375,2.799602508544922,10.63370418548584,-0.28115665912628174
1788093359467015000,3.476014892578125,1.0013962984085083,9.948160171508789,0.04785645380616188
1788093359477078000,3.486078125,-0.33738797903060913,10.122836112976074,-0.1579262912273407
1788093359487141000,3.49614111328125,1.140179991722107,10.426724433898926,-0.02153540402650833
1788093359497204200,3.506204345703125,1.6630117893218994,8.493324279785156,0.3481557071208954
1788093359507267600,3.516267578125,4.41475772857666,9.617950439453125,0.641276478767395
1788093359517330700,3.52633056640625,1.9968105554580688,9.360722541809082,-0.02871387079358101
1788093359527393800,3.536393798828125,1.8041882514953613,10.841879844665527,-1.0719845294952393
1788093359537457000,3.546456787109375,-0.10648060590028763,8.403593063354492,0.11485548317432404
1788093359547519700,3.556519775390625,4.35254430770874,9.213563919067383,0.02632104977965355
1788093359557583000,3.5665830078125,5.284548759460449,8.541180610656738,0.013160524889826775
1788093359567646200,3.576646240234375,4.225724697113037,9.416953086853027,-0.8386843204498291
1788093359577709300,3.586709228515625,-0.23330020904541016,10.427921295166016,-0.7597211599349976
1788093359587772400,3.5967724609375,-1.7359927892684937,11.82174015045166,-1.5206388235092163
1788093359597835500,3.60683544921875,-1.32921302318573,9.403793334960938,-0.4654040038585663
1788093359607898600,3.616898681640625,2.090130567550659,9.488738059997559,-1.0277173519134521
1788093359617961700,3.626961669921875,3.2626137733459473,9.652647018432617,-0.4989035129547119
1788093359628024800,3.63702490234375,3.0867412090301514,8.930013656616211,0.04666004329919815
1788093359638088000,3.647087890625,3.482753276824951,8.584251403808594,0.4163511395454407
1788093359648151000,3.657151123046875,3.322434186935425,8.61894702911377,0.6616154313087463
1788093359658214100,3.667214111328125,3.311666488647461,10.335797309875488,0.1950150430202484
1788093359668277200,3.67727734375,0.763310432434082,10.243673324584961,-0.09690931439399719
1788093359678340400,3.68734033203125,-0.5742774605751038,10.302297592163086,-0.5264210104942322
1788093359698466600,3.707466552734375,3.0628130435943604,9.604789733886719,-0.9487541913986206
1788093359708529700,3.71752978515625,3.9948174953460693,7.950153350830078,0.6352944374084473
1788093359718592800,3.7275927734375,3.656233072280884,9.603593826293945,0.062213387340307236
1788093359728656100,3.73765625,1.5302101373672485,10.747363090515137,0.2632105052471161
1788093359738719000,3.747718994140625,-1.062413215637207,8.752944946289062,0.7417750358581543
1788093359748782000,3.757781982421875,2.486142635345459,9.274580955505371,0.17228323221206665
1788093359758845200,3.76784521484375,4.43031120300293,9.014959335327148,0.14476576447486877
1788093359768908300,3.777908203125,4.510470867156982,9.42891788482666,-0.6329016089439392
1788093359778971600,3.7879716796875,1.0360921621322632,10.04985523223877,-0.729810893535614
1788093359789034800,3.79803466796875,-0.3170489966869354,11.508280754089355,-1.2239288091659546
1788093359799097900,3.808097900390625,-1.179661512374878,9.713663101196289,-0.38763725757598877
1788093359809161000,3.818160888671875,2.5112674236297607,9.485149383544922,-0.9475577473640442
1788093359819224000,3.82822412109375,3.3308091163635254,9.512666702270508,-0.035892341285943985
1788093359829287200,3.838287109375,3.077169895172119,8.877371788024902,0.26201409101486206
1788093359839350300,3.848350341796875,2.9240293502807617,8.72782039642334,0.3122633695602417
1788093359849413400,3.858413330078125,2.988635540008545,8.719446182250977,0.37926238775253296
1788093359859476500,3.8684765625,2.882154941558838,10.071390151977539,-0.20937198400497437
1788093359869539600,3.87853955078125,1.4500504732131958,10.644471168518066,-0.6711867451667786
1788093359879602700,3.888602783203125,-0.6281159520149231,10.207781791687012,-0.7920243144035339
1788093359889665800,3.898665771484375,-0.0323031060397625,10.249655723571777,-0.8039883971214294
1788093359899729000,3.90872900390625,3.1405797004699707,9.45763111114502,-0.7645068168640137
1788093359909792000,3.9187919921875,4.293920040130615,7.953742504119873,0.5204389095306396
1788093359919855000,3.928855224609375,3.6323046684265137,9.43489933013916,-0.23210379481315613
1788093359929918200,3.938918212890625,1.2681959867477417,10.75813102722168,-0.16390834748744965
1788093359939981300,3.948981201171875,-1.1832507848739624,9.067601203918457,0.21774685382843018
1788093359950044700,3.959044677734375,2.293520450592041,9.330811500549316,-0.02153540402650833
1788093359960107800,3.969107666015625,4.709074974060059,8.85344409942627,0.35892340540885925
1788093359970171000,3.9791708984375,5.057230472564697,9.22433090209961,-0.3038884699344635
1788093359980234000,3.98923388671875,1.6211373805999756,9.955338478088379,-0.5156532526016235
1788093359990297000,3.999297119140625,-0.6580262184143066,11.461620330810547,-0.9092726111412048
1788093360000360200,4.009360107421875,-1.9669002294540405,9.712467193603516,-0.5814558863639832
1788093360010423300,4.01942333984375,2.8211379051208496,9.68494987487793,-0.9942178130149841
1788093360020486400,4.029486328125,3.555734395980835,9.154939651489258,0.009571290574967861
1788093360030549500,4.039549560546875,3.6945180892944336,9.020941734313965,-0.5563312768936157
1788093360040612600,4.049612548828125,3.1549365520477295,8.930013656616211,-0.09451649338006973
1788093360050675700,4.05967578125,1.9932212829589844,8.504091262817383,0.39481574296951294
1788093360060738800,4.06973876953125,2.744567632675171,10.079765319824219,-0.3565305769443512
1788093360070802000,4.079802001953125,1.5242279767990112,10.443474769592285,-0.4570291340351105
1788093360080865300,4.089865234375,0.11724831163883209,10.092926025390625,-0.7094719409942627
1788093360090928400,4.099928466796875,-0.2512463629245758,10.338190078735352,-0.9655039310455322
1788093360100991500,4.109991455078125,3.273381471633911,10.468599319458008,-1.0719845294952393
1788093360111054600,4.1200546875,2.599801778793335,7.184450149536133,0.4259224236011505
1788093360121117700,4.13011767578125,5.109872817993164,9.832108497619629,-0.41156548261642456
1788093360131180800,4.140180908203125,1.0145567655563354,10.141979217529297,0.38644084334373474
1788093360141244000,4.150243896484375,-0.6699903607368469,9.714859962463379,-0.12203395366668701
1788093360151307300,4.160307373046875,1.1976077556610107,8.890532493591309,0.3684946894645691
1788093360161370400,4.170370361328125,4.662415027618408,9.008976936340332,0.30149564146995544
1788093360171433500,4.18043359375,5.170889854431152,8.96829891204834,-0.12681959569454193
1788093360181496600,4.19049658203125,2.3150558471679688,9.77826976776123,-0.5718846321105957
1788093360191559700,4.2005595703125,-0.29790642857551575,11.410174369812012,-0.98703932762146
1788093360201622800,4.210622802734375,-2.0853450298309326,10.161121368408203,-0.9942178130149841
1788093360211686000,4.220685791015625,2.5974090099334717,10.000802040100098,-1.0265209674835205
1788093360221749200,4.230749267578125,2.691925525665283,8.772088050842285,-0.08015955984592438
1788093360231812400,4.240812255859375,3.9110686779022217,9.33320426940918,-0.7034898400306702
1788093360241875500,4.25087548828125,3.005385160446167,8.82951545715332,0.10887342691421509
1788093360251938600,4.2609384765625,2.5399811267852783,8.578269004821777,0.48813581466674805
1788093360262001700,4.271001708984375,2.4502503871917725,9.723235130310059,-0.02871387079358101
1788093360272065000,4.28106494140625,1.8771693706512451,10.913663864135742,-0.625723123550415
1788093360282128100,4.291128173828125,-0.21296121180057526,9.984052658081055,-0.711864709854126
1788093360292191200,4.301191162109375,-0.07178468257188797,10.321440696716309,-0.9810572862625122
1788093360302254300,4.31125439453125,3.2315070629119873,10.192228317260742,-0.9511470198631287
1788093360312317400,4.3213173828125,3.2482566833496094,7.466803073883057,0.4259224236011505
1788093360322380800,4.331380859375,5.188836097717285,9.535398483276367,-0.18544375896453857
1788093360372696600,4.381696533203125,4.935196876525879,8.86780071258545,-0.1866401731967926
1788093360382759700,4.391759765625,2.445464849472046,9.844072341918945,-0.7740781307220459
1788093360392822800,4.40182275390625,-0.5706881880760193,11.184053421020508,-0.9702895879745483
1788093360402886000,4.411885986328125,-2.142772674560547,10.344172477722168,-0.8398807644844055
1788093360418887700,4.4278876953125,-2.3784656524658203,9.578469276428223,-0.46899324655532837
1788093360428950800,4.43795068359375,-2.3784656524658203,9.578469276428223,-0.46899324655532837
1788093360439015000,4.448014892578125,-0.46390849351882935,9.09392261505127,-0.13968102633953094
1788093360459134200,4.46813427734375,2.2648067474365234,8.519944190979004,0.5416752099990845
1788093360469198300,4.4781982421875,2.8624141216278076,10.252945899963379,0.04366901144385338
1788093360479263500,4.488263427734375,1.329512119293213,10.385747909545898,-0.16450655460357666
1788093360489330000,4.498329833984375,-0.19591236114501953,10.142277717590332,-0.4707878530025482
1788093360499418000,4.508418212890625,-0.1094716340303421,10.280463218688965,-0.7085745930671692
1788093360519569000,4.52856884765625,3.6364922523498535,7.882256984710693,-0.32602208852767944
1788093360529782800,4.53878271484375,4.813461780548096,8.809774398803711,-0.3334996700286865
1788093360539996700,4.54899658203125,2.2707886695861816,9.802796363830566,-0.16689938306808472
1788093360550210300,4.559210205078125,0.04755735024809837,10.395618438720703,-0.4585246443748474
1788093360560474600,4.569474609375,-0.19591236114501953,9.190532684326172,-0.05563312768936157
1788093360580952600,4.58995263671875,4.973781108856201,8.883952140808105,0.29790642857551575
1788093360591152600,4.600152587890625,3.9275193214416504,9.323932647705078,-0.16510476171970367
1788093360601282800,4.61028271484375,0.7878368496894836,10.3681001663208,-0.4627120792865753
1788093360611346000,4.620345947265625,-1.00259268283844,10.97049331665039,-0.8090731501579285
1788093360621434000,4.63043408203125,0.14506487548351288,9.698409080505371,-0.5638088583946228
1788093360641585000,4.6505849609375,4.441378116607666,9.196515083312988,-0.4531407952308655
1788093360651823900,4.660823974609375,3.4821550846099854,8.925827026367188,-0.11665010452270508
1788093360662037800,4.671037841796875,2.410768747329712,8.930313110351562,0
1788093360672301800,4.6813017578125,1.973480463027954,9.184849739074707,0.003589233849197626
1788093360682490600,4.69149072265625,2.501396894454956,10.115059852600098,-0.24436701834201813
1788093360702968600,4.711968505859375,0.03888336941599846,10.205687522888184,-0.9029914736747742
1788093360713233000,4.72223291015625,0.14117653667926788,10.216156005859375,-0.6661019921302795
1788093360723446800,4.73244677734375,2.8172495365142822,9.728918075561523,-0.5030909776687622
1788093360733459000,4.742458984375,3.684647798538208,8.16401195526123,0.3355933725833893
1788093360743547100,4.752547119140625,3.9550366401672363,9.253344535827637,0.2787638306617737
1788093360753761000,4.762760986328125,1.3414762020111084,10.310672760009766,0.2626122832298279
1788093360764025000,4.773025146484375,-0.41575294733047485,9.882357597351074,0.04217349737882614
1788093360784503000,4.7935029296875,4.488636016845703,8.98385238647461,0.08285148441791534
1788093360794717000,4.803717041015625,5.307579517364502,8.896514892578125,-0.15882360935211182
1788093360804930800,4.813930908203125,2.7370901107788086,9.76660442352295,-0.6287141442298889
1788093360815122000,4.824121826171875,-0.39840495586395264,10.961819648742676,-0.7378866672515869
1788093360825189000,4.834189208984375,-1.8086748123168945,10.683653831481934,-0.6882356405258179
1788093360845315600,4.854315673828125,3.4525439739227295,8.911768913269043,-0.3400799036026001
1788093360855379000,4.86437890625,4.621737003326416,9.140283584594727,-0.4262215197086334
1788093360865542700,4.874542724609375,3.7525441646575928,8.784051895141602,-0.08315058797597885
1788093360875655700,4.88465576171875,2.71854567527771,8.717351913452148,0.361017107963562
1788093360885668400,4.89466845703125,2.6024937629699707,9.2859468460083,0.43100717663764954
1788093360895882000,4.904882080078125,2.247159481048584,10.368997573852539,0.17168502509593964
1788093360906146300,4.915146240234375,0.3720839321613312,10.390233993530273,0.1504487246274948
1788093360916410400,4.925410400390625,-1.0037890672683716,10.535897254943848,-0.1013958603143692
1788093360926624300,4.935624267578125,0.5488536953926086,10.253543853759766,-0.37058842182159424
1788093360936838100,4.945838134765625,3.634697675704956,8.888439178466797,-0.19381862878799438
1788093360947094000,4.956093994140625,5.330610752105713,7.9244303703308105,0.00029910283046774566
1788093360957269000,4.96626904296875,4.41266393661499,9.150452613830566,-0.6837490797042847
1788093360977571300,4.9865712890625,-1.1650055646896362,9.744172096252441,-0.6870391964912415
1788093360987533300,4.996533203125,0.802193820476532,9.418747901916504,-0.789332389831543
1788093360997696800,5.00669677734375,4.48833703994751,8.882157325744629,-0.38763725757598877
1788093361007910700,5.01691064453125,5.742176055908203,8.967700958251953,-0.3490529954433441
1788093361018124500,5.02712451171875,2.477468729019165,9.606584548950195,-0.48095735907554626
1788093361028388600,5.037388671875,-0.7435696125030518,11.27647590637207,-0.794417142868042
1788093361048866800,5.05786669921875,1.464706540107727,9.618249893188477,0.359820693731308
1788093361059115000,5.068114990234375,3.5380873680114746,9.081061363220215,1.0250253677368164
1788093361069223200,5.07822314453125,4.177569389343262,9.236893653869629,0.2994019389152527
1788093361079336700,5.088336669921875,3.4411780834198,8.65932559967041,-0.34217363595962524
1788093361089600800,5.098600830078125,2.621636390686035,8.715557098388672,-0.7034898400306702
1788093361099814700,5.108814697265625,2.8241288661956787,9.579665184020996,-1.5400804281234741
1788093361110078700,5.11907861328125,2.188535451889038,10.219446182250977,-1.4949159622192383
1788093361120141800,5.129141845703125,0.3900300860404968,10.416555404663086,-1.073180913925171
1788093361130330400,5.139330322265625,-0.9544371366500854,10.591231346130371,-0.9469595551490784
1788093361140468700,5.14946875,0.924227774143219,10.171589851379395,-0.5877370834350586
1788093361150582000,5.15958203125,3.7354953289031982,8.565707206726074,0.1701895147562027
1788093361171060000,5.18006005859375,4.108775615692139,9.305388450622559,-0.07627122104167938
1788093361181176800,5.1901767578125,0.8784649968147278,10.5394868850708,-0.23270200192928314
1788093361191390500,5.200390380859375,-1.830808401107788,9.947562217712402,-0.09571290761232376
1788093361201453300,5.210453369140625,0.4543372094631195,9.439984321594238,-0.15284155309200287
1788093361211516200,5.22051611328125,4.787439823150635,8.837890625,0.07118647545576096
1788093361221730000,5.23072998046875,6.211169242858887,8.871688842773438,-0.11964113265275955
1788093361231994000,5.240994140625,2.6141586303710938,9.742377281188965,-0.5440680384635925
1788093361252472300,5.261472412109375,-2.3249263763427734,10.302896499633789,-0.23300109803676605
1788093361262660900,5.271660888671875,1.1563315391540527,9.504889488220215,0.03738785535097122
1788093361272914400,5.28191455078125,3.5596227645874023,9.061320304870605,0.4292125701904297
1788093361283067400,5.2920673828125,4.587339878082275,9.127422332763672,0.31854450702667236
1788093361303194000,5.312194091796875,1.9540387392044067,8.848957061767578,-0.13878370821475983
1788093361313257500,5.322257568359375,2.084148406982422,9.423234939575195,-0.9708877801895142
1788093361323471000,5.33247119140625,2.5046870708465576,10.19312572479248,-2.0946171283721924
1788093361333483500,5.3424833984375,1.5074782371520996,10.371689796447754,-2.0760726928710938
1788093361343596800,5.3525966796875,0.3478565812110901,10.130613327026367,-0.9753743410110474
1788093361353835800,5.362835693359375,1.2251251935958862,9.773782730102539,-0.24436701834201813
1788093361364099800,5.373099853515625,4.135993957519531,9.17587661743164,-0.007477570790797472
1788093361384578000,5.393578125,4.716253280639648,9.207581520080566,-0.03469592705368996
1788093361394792000,5.4037919921875,1.1748759746551514,10.50389289855957,0.01375873014330864
1788093361404988400,5.413988525390625,-1.334596872329712,10.156635284423828,-0.14267204701900482
1788093361415148300,5.424148193359375,-0.20847466588020325,9.323334693908691,0.12382857501506805
1788093361425236700,5.43423681640625,4.04775857925415,8.947062492370605,0.24047867953777313
1788093361445387300,5.45438720703125,4.116552352905273,9.378069877624512,-0.41156548261642456
1788093361455626200,5.464626220703125,-0.2748754918575287,10.87717342376709,-0.6143572330474854
1788093361465890600,5.474890625,-1.6582261323928833,10.968400001525879,-0.14117653667926788
1788093361476104400,5.4851044921875,0.3442673683166504,9.366703987121582,0.1944168359041214
1788093361486368500,5.495368408203125,3.4755749702453613,9.058329582214355,-0.09810572862625122
1788093361496582400,5.50558251953125,4.7030930519104,9.298508644104004,-0.1498505175113678
1788093361517039400,5.526039306640625,1.784447431564331,9.239884376525879,-0.5464608669281006
1788093361527102700,5.536102783203125,1.5185450315475464,9.234201431274414,-0.8374879360198975
1788093361537166000,5.546166015625,2.703291416168213,9.803394317626953,-0.9729815125465393
1788093361547229700,5.556229736328125,2.318944215774536,10.144072532653809,-0.8327022790908813
1788093361557292800,5.566292724609375,0.4136592149734497,10.431211471557617,-0.5670989751815796
1788093361577595100,5.58659521484375,1.313958764076233,9.847661972045898,-0.04127619042992592
1788093361587557000,5.59655712890625,4.254737854003906,8.705686569213867,-0.13579268753528595
1788093361597720800,5.606720947265625,5.502594947814941,8.3057861328125,-0.09062815457582474
1788093361607859200,5.616859130859375,3.2853455543518066,9.670592308044434,-0.4414757788181305
1788093361617972200,5.62697216796875,-0.1663011759519577,10.873584747314453,-0.877567708492279
1788093361628211500,5.63721142578125,-1.8999011516571045,9.757631301879883,-0.46390849351882935
1788093361648714500,5.657714599609375,5.2145586013793945,8.51456069946289,-0.8706883192062378
1788093361658978800,5.667978759765625,5.576473236083984,9.20997428894043,-1.1315059661865234
1788093361669170000,5.678169921875,2.0383858680725098,10.05284595489502,-1.319043517112732
1788093361679361000,5.688361083984375,-0.8315058946609497,10.793424606323242,-1.4087743759155273
1788093361689575000,5.698574951171875,0.5216353535652161,11.23908805847168,-1.200299620628357
1788093361709750800,5.718750732421875,4.384847640991211,8.574978828430176,-0.36281174421310425
1788093361719813600,5.728813720703125,3.8826539516448975,9.394221305847168,0.37477585673332214
1788093361730002400,5.73900244140625,1.6139588356018066,9.320343017578125,0.1175474151968956
1788093361740140800,5.749140869140625,1.170987606048584,9.114261627197266,0.6574280261993408
1788093361750254000,5.759254150390625,1.7533408403396606,8.977272033691406,0.857228696346283
1788093361770732000,5.77973193359375,3.324826955795288,10.408778190612793,-0.7677969932556152
1788093361780996600,5.78999658203125,0.07028916478157043,9.773484230041504,-0.49591249227523804
1788093361791210500,5.80021044921875,-0.37836506962776184,10.607980728149414,-0.734895646572113
1788093361801341400,5.810341552734375,0.7767700552940369,10.50389289855957,-0.8973084688186646
1788093361811392300,5.820392333984375,2.6623141765594482,8.541778564453125,-0.46869412064552307
1788093361821480700,5.830480712890625,3.5994033813476562,7.9157562255859375,-0.10348957777023315
1788093361841631200,5.85063134765625,3.3607194423675537,9.60628604888916,-0.11455638706684113
1788093361851870500,5.860870361328125,0.6275177597999573,9.218050003051758,-0.5422734022140503
1788093361862059000,5.87105908203125,-1.170688509941101,11.133803367614746,-0.649053156375885
1788093361872323300,5.8813232421875,1.1219347715377808,11.092527389526367,-0.6858428120613098
1788093361882537500,5.891537353515625,1.2729816436767578,8.197810173034668,-0.08464609831571579
1788093361903015400,5.912015380859375,3.833899974822998,8.568997383117676,0.7411768436431885
1788093361913280000,5.922280029296875,3.141477108001709,9.446864128112793,-0.39870408177375793
1788093361923494000,5.932493896484375,1.303490161895752,10.381560325622559,-0.6305087804794312
1788093361933506300,5.94250634765625,0.11994023621082306,9.668498992919922,-0.6122635006904602
1788093361943619600,5.95261962890625,1.6944174766540527,10.020243644714355,-0.26919254660606384
1788093361953858600,5.962858642578125,2.1705892086029053,8.025527000427246,0.7857431173324585
1788093361964122600,5.97312255859375,3.035893678665161,9.122636795043945,0.019740786403417587
1788093361984600800,5.993600830078125,1.3489537239074707,10.303494453430176,-1.069292664527893
1788093361994839800,6.00383984375,1.3549357652664185,10.421640396118164,-1.0492527484893799
1788093362004978200,6.013978271484375,3.6843485832214355,9.545866966247559,-0.43489551544189453
1788093362015074800,6.02407470703125,2.0659031867980957,9.23719310760498,0.07088737189769745
1788093362035302700,6.044302734375,0.17706887423992157,9.474381446838379,0.15254244208335876
1788093362045366000,6.054365966796875,1.7871394157409668,10.851749420166016,0.02063809521496296
1788093362055580000,6.064579833984375,0.633499801158905,10.647462844848633,-0.31316065788269043
1788093362065592300,6.07459228515625,-1.1428718566894531,8.307282447814941,0.6071787476539612
1788093362075705600,6.08470556640625,2.171187400817871,9.218050003051758,-0.001794616924598813
1788093362085969700,6.0949697265625,5.462514877319336,11.138589859008789,-0.8721838593482971
1788093362096183600,6.10518359375,0.7968099117279053,10.881958961486816,-0.5907281041145325
1788093362116712000,6.1257119140625,1.0860424041748047,9.13131046295166,0.3008974492549896
1788093362126900500,6.135900390625,5.643472194671631,11.3240327835083,-0.8817551732063293
1788093362137097500,6.146097412109375,0.16031911969184875,9.92124080657959,-0.09990034252405167
1788093362147258000,6.156258056640625,-2.455035924911499,8.080263137817383,1.140179991722107
1788093362157321500,6.166321533203125,2.1185452938079834,9.652347564697266,-0.06071787327528
1788093362177448400,6.186448486328125,-0.3251247704029083,9.979565620422363,-0.6819544434547424
1788093362187511600,6.196511474609375,-3.0592236518859863,8.05812931060791,1.628315806388855
1788093362197575200,6.2065751953125,2.572882652282715,9.838688850402832,0.00029910283046774566
1788093362207714000,6.216714111328125,6.473482608795166,11.42243766784668,-2.1484556198120117
1788093362217953000,6.226953125,-1.5032907724380493,9.574581146240234,-0.5252245664596558
1788093362228217300,6.23721728515625,-2.1756739616394043,7.8403825759887695,2.0787646770477295
1788093362248695800,6.25769580078125,7.472187042236328,11.944372177124023,-1.3914263248443604
1788093362258960000,6.2679599609375,-2.048555374145508,9.327521324157715,0.4082753658294678
1788093362269173800,6.278173828125,-2.435594320297241,7.849953651428223,2.3641088008880615
1788093362279387600,6.2883876953125,3.6125640869140625,9.749855041503906,0.5359922647476196
1788093362289601300,6.298601318359375,7.833503246307373,11.854043006896973,-1.9555343389511108
1788093362309777400,6.31877734375,-2.579462766647339,7.5687971115112305,1.2996017932891846
1788093362319840300,6.32884033203125,2.9341988563537598,10.028618812561035,0.09601201117038727
1788093362330028800,6.33902880859375,7.8248291015625,10.751251220703125,-1.1599208116531372
1788093362340167200,6.349167236328125,-1.9151554107666016,8.391927719116211,-0.06251249462366104
1788093362360494300,6.369494384765625,3.038585662841797,9.954740524291992,-0.7238288521766663
1788093362370758700,6.379758544921875,6.2898335456848145,11.143973350524902,-2.447857618331909
1788093362381023200,6.390023193359375,-1.6411771774291992,8.369495391845703,-0.39601215720176697
1788093362391236900,6.40023681640625,-0.6119644045829773,9.279067039489746,1.140179991722107
1788093362401369600,6.41036962890625,3.055335521697998,10.726426124572754,-0.12113664299249649
1788093362411423000,6.420423095703125,4.259822368621826,10.318150520324707,-1.9450657367706299
1788093362421511400,6.430511474609375,-2.2474586963653564,8.137092590332031,0.15074782073497772
1788093362441662200,6.450662109375,3.8524444103240967,11.545369148254395,-0.03768695518374443
1788093362451901200,6.460901123046875,1.5335001945495605,9.545567512512207,-0.6502495408058167
1788093362462115000,6.471114990234375,-2.3147568702697754,8.258528709411621,1.2960125207901
1788093362472379400,6.48137939453125,0.9744769930839539,10.179067611694336,1.3674981594085693
1788093362482568200,6.491568115234375,5.219045162200928,11.274083137512207,-0.4785645306110382
1788093362503046100,6.512046142578125,-3.6421751976013184,8.327919960021973,1.5750755071640015
1788093362513310700,6.522310791015625,0.2509472668170929,9.307781219482422,1.100698471069336
1788093362523524600,6.532524658203125,6.128317832946777,10.710872650146484,-0.5617151260375977
1788093362533537000,6.542537109375,2.5797619819641113,9.984650611877441,-0.44715872406959534
1788093362543650300,6.552650390625,-2.4574289321899414,9.435498237609863,2.1245274543762207
1788093362553889300,6.56288916015625,2.2489542961120605,10.50808048248291,0.9735797047615051
1788093362564153300,6.5731533203125,6.320042610168457,10.575977325439453,-1.0265209674835205
1788093362584631600,6.593631591796875,-2.3222343921661377,9.545866966247559,1.4009976387023926
1788093362594895600,6.6038955078125,0.7211369276046753,10.709077835083008,0.243469700217247
1788093362605109500,6.614109619140625,3.7761733531951904,10.537692070007324,-1.9301105737686157
1788093362615264500,6.624264404296875,-0.06759724020957947,8.464012145996094,-1.158425211906433
1788093362625271600,6.634271484375,-1.5005989074707031,9.057432174682617,0.7522436380386353
1788093362645574000,6.654573974609375,4.141078472137451,10.83260726928711,-0.8377870321273804
1788093362655838500,6.66483837890625,-1.8239290714263916,8.699405670166016,0.9032905697822571
1788093362666052400,6.67505224609375,-1.587039589881897,9.45464038848877,1.6719847917556763
1788093362676316700,6.685316650390625,2.760420083999634,10.018449783325195,0.8928219676017761
1788093362686530300,6.6955302734375,4.934299468994141,10.062417030334473,-0.40348970890045166
1788093362707008500,6.716008544921875,-0.03858426585793495,9.724132537841797,0.7244270443916321
1788093362717100500,6.7261005859375,3.951746702194214,10.894222259521484,-0.44446679949760437
1788093362727164200,6.7361640625,4.470091819763184,11.28365421295166,-1.664208173751831
1788093362737328000,6.746328125,-3.5668013095855713,8.779565811157227,0.7651050686836243
1788093362747592400,6.756592529296875,-0.24586252868175507,9.209376335144043,1.2951152324676514
1788093362757806600,6.766806640625,5.9509501457214355,10.390233993530273,-0.3969094455242157
1788093362778284500,6.787284423828125,-4.133601188659668,8.501100540161133,1.2768700122833252
1788093362788498400,6.79749853515625,-2.1837496757507324,9.387940406799316,1.241276741027832
1788093362798762800,6.8077626953125,3.8219358921051025,11.437093734741211,-0.6263213157653809
1788093362808977000,6.817976806640625,0.8721838593482971,9.33858871459961,-1.4991034269332886
1788093362819216000,6.8282158203125,-3.3801610469818115,8.528617858886719,0.20997019112110138
1788093362829480200,6.838480224609375,1.2640085220336914,11.491231918334961,-0.07597211748361588
1788093362849958700,6.858958740234375,0.3723830282688141,7.8433732986450195,0.31345975399017334
1788093362860222700,6.86922265625,-0.7926225066184998,9.163912773132324,2.364407777786255
1788093362870436600,6.8794365234375,3.458526134490967,11.995220184326172,2.2205393314361572
1788093362880650500,6.889650390625,4.202693939208984,10.806285858154297,0.7836494445800781
1788093362890822400,6.899822509765625,-2.1077775955200195,8.55164909362793,1.2786645889282227
1788093362910823000,6.919822998046875,2.3802602291107178,11.184053421020508,-0.22791635990142822
1788093362920886000,6.929885986328125,4.332803726196289,11.407781600952148,-2.5965116024017334
1788093362930949600,6.93994970703125,-2.6841487884521484,9.088837623596191,-1.4916257858276367
1788093362941013000,6.950012939453125,-2.670689105987549,9.684052467346191,-0.40348970890045166
1788093362951076400,6.960076416015625,1.8658034801483154,10.649556159973145,0.3891327679157257
1788093362971204400,6.980204345703125,-0.9720842242240906,8.432307243347168,1.8583258390426636
1788093362981267700,6.990267822265625,0.031405795365571976,9.998708724975586,2.9347970485687256
1788093362991481300,7.0004814453125,2.7239294052124023,10.349555969238281,3.443570852279663
1788093363001720600,7.010720458984375,3.0729825496673584,9.534201622009277,1.8299111127853394
1788093363011985000,7.02098486328125,-1.347757339477539,7.727321624755859,1.6827524900436401
1788093363022199000,7.031198974609375,0.045164529234170914,10.109077453613281,0.5033900737762451
1788093363042702000,7.0517021484375,0.1986042857170105,8.952147483825684,-3.555136203765869
1788093363052941300,7.06194140625,-0.9323035478591919,7.87358283996582,-2.568695068359375
1788093363063038700,7.072038818359375,2.6575286388397217,10.801799774169922,-1.4054841995239258
1788093363073197000,7.082197021484375,5.0964131355285645,11.259726524353027,-1.2652050256729126
1788093363083310300,7.092310302734375,0.50907301902771,8.220243453979492,-0.529412031173706
1788093363093322800,7.10232275390625,-1.1823534965515137,7.614260673522949,1.3196417093276978
1788093363113800700,7.12280078125,3.691826343536377,11.12722396850586,-0.6221339106559753
1788093363124014600,7.1330146484375,-2.1750757694244385,7.76261568069458,-1.415354609489441
1788093363134278700,7.143278564453125,0.15972091257572174,8.824131965637207,-1.1108678579330444
1788093363144492500,7.153492431640625,4.204787731170654,10.724631309509277,-0.6236293911933899
1788093363154749700,7.163749755859375,4.79102897644043,10.670493125915527,-1.5687943696975708
1788093363164951800,7.173951904296875,-1.7697914838790894,8.686843872070312,-0.7163512706756592
1788093363185127700,7.194127685546875,1.3208380937576294,10.832906723022461,1.0037890672683716
1788093363195342000,7.204342041015625,0.8781659007072449,9.224630355834961,-0.6580262184143066
1788093363205556000,7.214555908203125,-1.6061822175979614,7.737192153930664,-0.5685944557189941
1788093363215820000,7.224820068359375,2.1589243412017822,11.419746398925781,-0.3086741268634796
1788093363226034000,7.235033935546875,3.6894333362579346,11.964412689208984,-0.397208571434021
1788093363246511900,7.255511962890625,-1.5143576860427856,8.018648147583008,-0.29371899366378784
1788093363266819800,7.27581982421875,1.2098709344863892,13.269697189331055,-0.21146570146083832
1788093363276883200,7.28588330078125,-2.3060827255249023,8.9312105178833,-0.771087110042572
1788093363286946600,7.295946533203125,0.384347140789032,7.466204643249512,0.2727817893028259
1788093363297010700,7.3060107421875,3.606581926345825,11.126326560974121,1.7428722381591797
1788093363307274800,7.316274658203125,4.131806373596191,12.51745319366455,-0.41964125633239746
1788093363317186600,7.3261865234375,-2.5025932788848877,9.671191215515137,-1.6154544353485107
1788093363327400400,7.336400390625,-2.4095723628997803,7.69741153717041,-0.3239283561706543
1788093363337665000,7.3466650390625,-0.2632105052471161,11.305788040161133,1.4817553758621216
1788093363347879000,7.35687890625,1.3331012725830078,12.733704566955566,-0.31316065788269043
1788093363358067500,7.3670673828125,-0.3439682424068451,7.622336387634277,-0.5853442549705505
1788093363388608500,7.3976083984375,2.357229471206665,10.442875862121582,-0.698704183101654
1788093363398858500,7.4078583984375,-3.304488182067871,8.544769287109375,-0.9023932218551636
1788093363408967700,7.4179677734375,-0.37896329164505005,8.662017822265625,0.8889335989952087
1788093363419031000,7.428031005859375,4.42402982711792,12.317652702331543,1.4416756629943848
1788093363429095000,7.438094970703125,3.9738802909851074,10.86281681060791,-1.0456634759902954
1788093363449222100,7.45822216796875,1.7282161712646484,8.831310272216797,0.07537391036748886
1788093363459285500,7.468285400390625,2.03629207611084,10.704590797424316,-0.8814560174942017
1788093363469349000,7.47834912109375,-0.1585244983434677,9.332307815551758,-2.3808584213256836
1788093363479487500,7.488487548828125,-1.1371889114379883,8.0291166305542,-0.877866804599762
1788093363489651000,7.49865087890625,1.308275818824768,9.451350212097168,1.2197413444519043
1788093363499588000,7.508588134765625,2.490629196166992,11.886645317077637,-0.2844468057155609
1788093363509852200,7.51885205078125,-1.1955139636993408,8.58484935760498,-1.6268203258514404
1788093363520066000,7.529066162109375,0.7411768436431885,6.706782817840576,-0.4660021960735321
1788093363530330600,7.53933056640625,3.9050865173339844,9.123234748840332,-0.16301104426383972
1788093363540544500,7.54954443359375,3.9571304321289062,11.773883819580078,-2.589632272720337
1788093363550758400,7.55975830078125,-1.2993026971817017,10.512567520141602,-2.8325037956237793
1788093363571236400,7.580236328125,2.816352367401123,9.888040542602539,0.20787647366523743
1788093363581306400,7.590306396484375,1.9564316272735596,13.175180435180664,-2.133500576019287
1788093363591520300,7.600520263671875,-2.067697763442993,6.1334028244018555,-1.906481385231018
1788093363601759200,7.61075927734375,4.153641223907471,7.914559841156006,-0.31345975399017334
1788093363612023800,7.62102392578125,5.239683151245117,12.47288703918457,0.06191428750753403
1788093363622237700,7.63123779296875,1.090229868888855,10.276575088500977,-2.372483730316162
1788093363632502000,7.641501953125,-1.9151554107666016,7.541578769683838,-0.5392823815345764
1788093363652980000,7.66197998046875,3.8790645599365234,13.837693214416504,-0.5739783048629761
1788093363663193900,7.67219384765625,-3.434896945953369,8.426324844360352,-1.7569299936294556
1788093363673458400,7.68245849609375,0.09361918270587921,6.270989894866943,-0.39122650027275085
1788093363683672300,7.69267236328125,2.806182861328125,10.548758506774902,0.9448658227920532
1788093363693886200,7.70288623046875,4.377668857574463,14.473586082458496,-1.5197415351867676
1788093363704150500,7.713150634765625,-4.566701889038086,8.242077827453613,-1.1252248287200928
1788093363724628700,7.733628662109375,2.7610182762145996,10.4883394241333,2.285444736480713
1788093363734767600,7.743767578125,3.909274101257324,16.114164352416992,-0.9026923179626465
1788093363744939800,7.753939697265625,-2.9027929306030273,7.750651836395264,-1.6019947528839111
1788093363755204000,7.7642041015625,3.6813576221466064,7.5050883293151855,1.026221752166748
1788093363765418200,7.774418212890625,4.194019794464111,11.755638122558594,1.8149559497833252
1788093363785896200,7.794896240234375,-5.156233787536621,9.731908798217773,-1.9196419715881348
1788093363796160800,7.805160888671875,-0.900897741317749,8.664112091064453,1.1623135805130005
1788093363806374700,7.815374755859375,3.853341817855835,12.005389213562012,2.985943555831909
1788093363816540700,7.825540771484375,0.5386841893196106,8.911170959472656,0.7034898400306702
1788093363826606300,7.8356064453125,0.6996015310287476,8.190631866455078,-0.7722834944725037
1788093363846733800,7.85573388671875,3.292823076248169,11.024930000305176,2.111067771911621
1788093363856797000,7.865796875,-0.8578268885612488,6.979564666748047,0.9119645357131958
1788093363866860800,7.87586083984375,0.2886342406272888,8.876773834228516,0.6364908218383789
1788093363876924200,7.885924072265625,2.3273191452026367,11.11884880065918,1.2918251752853394
1788093363886987500,7.895987548828125,2.444268226623535,10.453045845031738,0.3188436031341553
1788093363907315700,7.916315673828125,0.06131608039140701,9.705587387084961,-0.9571290612220764
1788093363917227500,7.9262275390625,3.384946823120117,12.18784236907959,-0.07956135272979736
1788093363927441400,7.93644140625,1.6199408769607544,11.129616737365723,-0.7707880139350891
1788093363947920000,7.956919921875,0.6577271223068237,9.354440689086914,1.308574914932251
1788093363958108400,7.9671083984375,4.980959415435791,12.355340003967285,2.0048863887786865
1788093363978435600,7.987435546875,-2.638087034225464,8.563912391662598,0.5850451588630676
1788093363988498400,7.99749853515625,-0.4567300081253052,10.504491806030273,1.4793626070022583
1788093363998687200,8.007687255859375,2.223829507827759,11.367403030395508,2.3590240478515625
1788093364008894700,8.017894775390625,1.830808401107788,8.587242126464844,0.6855437159538269
1788093364029161500,8.038161376953125,-0.7938188910484314,11.567203521728516,0.1782652884721756
1788093364049312300,8.058312255859375,1.272682547569275,8.614460945129395,0.05114658549427986
1788093364059551200,8.06855126953125,-0.4704887568950653,7.980661869049072,0.7953144311904907
1788093364069815600,8.078815673828124,2.5782663822174072,10.837692260742188,1.6082758903503418
1788093364080029400,8.089029541015625,4.05493688583374,12.659826278686523,1.1778669357299805
1788093364090293500,8.09929345703125,-0.836291491985321,8.890233039855957,0.09391828626394272
1788093364110746400,8.119746337890625,2.8274190425872803,11.759527206420898,1.6974085569381714
1788093364120809200,8.129809326171875,4.809274196624756,14.095220565795898,0.1941177397966385
1788093364131023000,8.140023193359376,-4.554139614105225,8.259126663208008,-1.1979068517684937
1788093364141161500,8.150161376953125,-2.0802602767944336,6.786942481994629,-0.4133601188659668
1788093364151208000,8.1602080078125,0.8536394834518433,11.443076133728027,1.9097715616226196
1788093364171285200,8.18028515625,-3.2608189582824707,6.578766822814941,0.48574298620224
1788093364181349000,8.19034912109375,-0.6574280261993408,7.911868095397949,0.7316055297851562
1788093364191562800,8.200562744140624,3.261716365814209,12.050254821777344,2.2788643836975098
1788093364201802000,8.210802001953125,3.539881944656372,11.960225105285645,2.489732027053833
1788093364212066300,8.22106640625,-1.1422736644744873,6.731907367706299,0.023030918091535568
1788093364222280400,8.231280517578124,0.5027918815612793,11.815757751464844,0.026620151475071907
1788093364232544500,8.24154443359375,1.470090389251709,12.652050018310547,1.6372889280319214
1788093364253022700,8.262022705078126,-1.8849459886550903,6.452545166015625,0.41096729040145874
1788093364263121200,8.27212109375,1.1440683603286743,12.423833847045898,-0.8003991842269897
1788093364273279700,8.28227978515625,1.3746765851974487,12.29372501373291,-0.5524429082870483
1788093364283392800,8.292392822265626,-1.2846466302871704,8.965008735656738,-0.2312064915895462
1788093364293405400,8.302405517578125,-1.0600204467773438,7.283154010772705,1.0301101207733154
1788093364313883400,8.32288330078125,5.369792938232422,14.265410423278809,0.10468599200248718
1788093364323946200,8.3329462890625,-2.8812575340270996,9.370293617248535,-0.4615156650543213
1788093364334135000,8.343135009765625,0.0014955141814425588,7.471887588500977,0.9167501926422119
1788093364344349000,8.353348876953126,5.290231704711914,10.02293586730957,2.8073792457580566
1788093364354613200,8.36361328125,4.23738956451416,11.839686393737793,1.1673983335494995
1788093364364827400,8.373827392578125,-3.7552361488342285,8.391031265258789,-0.026021946221590042
1788093364385142300,8.394142333984375,3.1671998500823975,11.588739395141602,1.3758729696273804
1788093364395201300,8.404201171875,2.998206853866577,13.703695297241211,-0.8554341197013855
1788093364405365000,8.414364990234375,-3.13429856300354,6.685546398162842,-2.6210381984710693
1788093364415478000,8.42447802734375,0.7576274871826172,7.849056243896484,-1.2430713176727295
1788093364425490700,8.43449072265625,1.0495518445968628,12.48126220703125,1.5122638940811157
1788093364445943600,8.454943603515625,-0.6161518096923828,7.656135082244873,0.04486542567610741
1788093364456208000,8.465207763671875,-0.5868397355079651,9.09990406036377,2.5387847423553467
1788093364466421800,8.475421875,1.0325030088424683,11.058429718017578,3.4184463024139404
1788093364476560400,8.485560302734376,3.3670005798339844,11.930315017700195,-0.20039889216423035
1788093364486673400,8.49567333984375,-1.4428720474243164,8.194519996643066,-1.0058828592300415
1788093364506950100,8.5159501953125,2.362314224243164,11.550154685974121,1.108774185180664
1788093364517189400,8.526189453125,1.1907284259796143,10.009775161743164,-0.8608179688453674
1788093364527283700,8.53628369140625,-0.5018945336341858,7.994121551513672,-1.511067509651184
1788093364537351000,8.546350830078126,0.18364913761615753,9.523433685302734,0.7707880139350891
1788093364547489500,8.556489501953125,0.5225326418876648,11.006087303161621,1.9097715616226196
1788093364567615200,8.576615234375,1.866999864578247,8.28126049041748,-0.9122636318206787
1788093364588093400,8.597093505859375,1.9244276285171509,9.445667266845703,0.08135596662759781
1788093364598357800,8.607357666015625,3.4378879070281982,9.816853523254395,-1.349851131439209
1788093364608571400,8.6175712890625,-0.44327038526535034,8.671290397644043,-0.3490529954433441
1788093364618835700,8.627835693359375,1.6172490119934082,9.986145973205566,0.8682954907417297
1788093364629049600,8.638049560546875,4.2852463722229,11.684152603149414,0.2886342406272888
1788093364649309200,8.65830908203125,2.532503604888916,8.233104705810547,-0.13070793449878693
1788093364659523000,8.668523193359375,1.3202399015426636,10.805388450622559,0.02961117960512638
1788093364669762000,8.678761962890626,0.31854450702667236,10.27178955078125,-1.0761719942092896
1788093364679875000,8.688875,1.0663015842437744,9.460023880004883,-2.03629207611084
1788093364689887500,8.698887451171874,-1.5544373989105225,9.0514497756958,-0.4624129831790924
1788093364710365700,8.71936572265625,2.762812852859497,9.879366874694824,-1.5251253843307495
1788093364720579300,8.729579345703126,1.2329018115997314,9.186644554138184,-1.2577273845672607
1788093364730844000,8.739843994140625,0.5252245664596558,9.031410217285156,0.34636107087135315
1788093364741048800,8.750048828125,3.0717861652374268,11.439486503601074,0.4265206456184387
1788093364751203600,8.76020361328125,0.41605204343795776,9.553643226623535,0.4328017830848694
1788093364771331000,8.7803310546875,2.1346969604492188,9.897911071777344,1.1180464029312134
1788093364781394700,8.790394775390626,1.4946168661117554,10.291829109191895,0.6263213157653809
1788093364791608600,8.800608642578124,2.0832512378692627,9.340383529663086,-1.0307083129882812
1788093364801847800,8.810847900390625,-0.2599203586578369,10.054341316223145,-0.4588237404823303
1788093364812112100,8.821112060546875,0.6966105103492737,10.430014610290527,-0.6774678826332092
1788093364822326300,8.831326171875,0.29012975096702576,10.471290588378906,-1.2164511680603027
1788093364832590300,8.84159033203125,-1.0633105039596558,8.839983940124512,-0.5697908997535706
1788093364853068300,8.862068359375,1.6926229000091553,11.45683479309082,0.7031907439231873
1788093364863167200,8.872167236328124,-0.30658039450645447,9.49202823638916,0.7525427341461182
1788093364873325800,8.882325927734374,1.4105689525604248,9.090332984924316,0.8108677864074707
1788093364883439000,8.892439208984374,0.3837489187717438,11.03480052947998,1.8505492210388184
1788093364893451500,8.902451416015625,2.3590240478515625,10.524231910705566,0.2189432680606842
1788093364913929500,8.922929443359376,1.1524431705474854,9.862915992736816,-0.026021946221590042
1788093364923992600,8.93299267578125,2.1613171100616455,11.10209846496582,-0.47527438402175903
1788093364934181000,8.94318115234375,-0.8817551732063293,10.049257278442383,0.4345964193344116
1788093364944395000,8.95339501953125,0.056530434638261795,6.865905284881592,0.7818548083305359
1788093364954659300,8.963659423828124,1.1629117727279663,8.936893463134766,-0.012861421331763268
1788093364964873500,8.97387353515625,-1.848754644393921,9.725028991699219,-0.547657310962677
1788093364985188600,8.994188720703125,1.6498512029647827,10.346863746643066,-1.5275181531906128
1788093364995248000,9.004248046875,1.857129454612732,9.78245735168457,0.45583271980285645
1788093365005412000,9.014412109375,3.833002805709839,10.043574333190918,-0.7151548862457275
1788093365015525000,9.024525146484375,1.9405791759490967,10.011869430541992,-0.5431707501411438
1788093365025537500,9.03453759765625,0.9320043921470642,10.184152603149414,0.6197410821914673
1788093365045990400,9.054990478515625,-0.03768695518374443,8.09970474243164,1.8454644680023193
1788093365056255000,9.0652548828125,4.159922122955322,8.895915985107422,-1.3202399015426636
1788093365066468900,9.07546875,0.7642077207565308,10.37946605682373,-3.07627272605896
1788093365076607200,9.085607177734374,-1.0462616682052612,10.016355514526367,-0.4782654345035553
1788093365086720500,9.095720458984376,0.5497509837150574,9.6433744430542,-0.45613181591033936
1788093365096934400,9.105934326171875,1.485643744468689,9.107980728149414,0.3203391432762146
1788093365106997200,9.115997314453125,4.18983268737793,10.444072723388672,-1.602592945098877
1788093365117236200,9.126236328125,0.7884350419044495,9.33858871459961,-0.6299105882644653
1788093365127330800,9.136330810546875,0.906281590461731,9.51775074005127,0.618245542049408
1788093365137398300,9.146398193359374,0.9487541913986206,11.536097526550293,-0.5344967842102051
1788093365147537000,9.156536865234376,-1.4479568004608154,9.36760139465332,1.0295119285583496
1788093365167662600,9.17666259765625,0.3601198196411133,9.609575271606445,-0.393320232629776
1788093365188141300,9.197141357421875,1.2750753164291382,9.982855796813965,-0.5584250092506409
1788093365198405400,9.2074052734375,1.9573289155960083,9.870393753051758,0.7935197949409485
1788093365208619300,9.217619384765625,2.678166627883911,11.38415241241455,-0.26620152592658997
1788093365218883600,9.227883544921875,-0.8153542876243591,10.268499374389648,1.0214362144470215
1788093365229097500,9.238097412109376,1.088435173034668,10.208678245544434,1.2532408237457275
1788093365249357000,9.258357177734375,0.3978067636489868,8.522336959838867,0.9218349456787109
1788093365259570700,9.26857080078125,1.5125629901885986,9.36161994934082,-1.6238292455673218
1788093365269583000,9.2785830078125,-0.35503506660461426,9.398408889770508,-0.836590588092804
1788093365279696400,9.2886962890625,1.1599208116531372,10.493125915527344,-0.389431893825531
1788093365289960400,9.29896044921875,-1.5146567821502686,9.026923179626465,0.8458628058433533
1788093365310413300,9.319413330078126,0.8276175260543823,10.615458488464355,-0.3128615617752075
1788093365320652300,9.32965234375,1.51166570186615,9.061020851135254,0.8691928386688232
1788093365330916600,9.33991650390625,1.8822541236877441,9.48784065246582,0.026021946221590042
1788093365341109500,9.350109619140625,-0.7677969932556152,10.279565811157227,1.0752747058868408
1788093365351327500,9.360327392578125,1.1315059661865234,11.094022750854492,0.8198408484458923
1788093365361541400,9.370541259765625,2.3321046829223633,10.077073097229004,1.8092730045318604
1788093365371805700,9.3808056640625,4.85114860534668,9.71515941619873,0.1707877218723297
1788093365392284400,9.401284423828125,0.483051061630249,8.21695327758789,-1.0887342691421509
1788093365402498300,9.411498291015626,0.20847466588020325,9.952347755432129,-1.9459630250930786
1788093365412762600,9.4217626953125,-1.6408780813217163,9.499505996704102,0.14925231039524078
1788093365422915000,9.4319150390625,0.3529413342475891,9.176774024963379,-0.0029910283628851175
1788093365433020000,9.44202001953125,1.8595223426818848,9.786046028137207,0.4016951024532318
1788093365443284200,9.4522841796875,3.851846218109131,10.703694343566895,0.7133602499961853
1788093365453549000,9.462549072265626,2.0497517585754395,9.639486312866211,0.8461619019508362
1788093365463763000,9.472762939453125,3.01405930519104,10.185946464538574,0.2757728099822998
1788093365474027300,9.48302734375,0.6774678826332092,10.355538368225098,-0.2270190417766571
1788093365484241200,9.4932412109375,0.20458634197711945,9.478269577026367,0.5174478888511658
1788093365494454800,9.503454833984375,-0.08973085135221481,9.105886459350586,-0.5841478109359741
1788093365504697900,9.51369775390625,0.6176473498344421,9.474381446838379,-0.3116651475429535
1788093365524851700,9.533851806640625,-0.12203395366668701,10.201799392700195,0.01944168470799923
1788093365534915300,9.543915283203125,3.197409152984619,10.68544864654541,0.3236292600631714
1788093365544978400,9.553978515625,1.0929217338562012,10.266704559326172,0.7540382146835327
1788093365555042000,9.5640419921875,1.454237937927246,9.315258979797363,0.8811569213867188
1788093365575170000,9.584170166015625,-0.10019944608211517,9.353543281555176,0.2955136001110077
1788093365585234000,9.59423388671875,0.5796613097190857,9.670592308044434,-1.8526428937911987
1788093365595297800,9.6042978515625,1.1497513055801392,9.401998519897461,-0.9332008361816406
1788093365605461500,9.61446142578125,2.3865413665771484,10.30469036102295,-0.8144569993019104
1788093365615574800,9.62457470703125,-0.06161518394947052,9.320343017578125,0.4492524564266205
1788093365625587200,9.634587158203125,0.41934216022491455,9.396913528442383,-0.7025925517082214
1788093365646065200,9.655065185546874,1.7685949802398682,10.633105278015137,0.9942178130149841
1788093365656329500,9.66532958984375,2.6575286388397217,9.431310653686523,1.578365683555603
1788093365666543400,9.67554345703125,4.811966419219971,9.70678424835205,0.8347960114479065
1788093365676681700,9.685681640625,2.7702903747558594,10.983953475952148,-0.12681959569454193
1788093365686794800,9.695794677734375,-1.6567305326461792,9.650552749633789,-0.5488536953926086
1788093365707071700,9.71607177734375,0.014356935396790504,9.388538360595703,-0.7908278703689575
1788093365717297400,9.72629736328125,1.06271231174469,8.46161937713623,-0.058624155819416046
1788093365727384600,9.736384521484375,1.412961721420288,9.06700325012207,0.1782652884721756
1788093365737448400,9.746448486328125,1.2083754539489746,10.070792198181152,0.19202402234077454
1788093365747587000,9.756587158203125,-1.0660024881362915,10.08185863494873,0.40319061279296875
1788093365767712800,9.776712646484375,1.0827522277832031,10.415358543395996,-0.9496514797210693
1788093365788191500,9.79719140625,4.275076866149902,8.574978828430176,-0.1459621787071228
1788093365798455800,9.807455810546875,4.207479476928711,9.41037368774414,-1.0304092168807983
1788093365808669400,9.81766943359375,-1.332503080368042,9.847960472106934,-0.8611170649528503
1788093365818858200,9.827858154296875,-2.373979091644287,9.72951602935791,-0.6355935335159302
1788093365829120300,9.838120361328125,-1.312164068222046,9.128020286560059,-1.3211371898651123
1788093365849407500,9.858407470703124,1.6106687784194946,8.946166038513184,0.37118661403656006
1788093365859471400,9.868471435546875,4.113262176513672,9.761520385742188,-0.07208377867937088
1788093365869535200,9.87853515625,1.7231314182281494,10.653743743896484,0.735194742679596
1788093365879673900,9.888673828125,1.1455638408660889,10.952547073364258,-0.08673982322216034
1788093365889837300,9.89883740234375,1.5086746215820312,9.309576034545898,0.09900303930044174
1788093365910038500,9.91903857421875,1.124327540397644,8.698807716369629,-0.7648059129714966
1788093365920303600,9.9293037109375,0.3556332588195801,8.52054214477539,-0.9317052960395813
1788093365930517500,9.939517578125,-0.39930227398872375,9.466903686523438,-0.857228696346283
1788093365940731100,9.949731201171875,-1.0561320781707764,11.254342079162598,-0.48813581466674805
1788093365950995700,9.95999560546875,0.12891331315040588,10.176674842834473,0.13100704550743103
1788093365961210000,9.970210205078125,3.4534413814544678,10.088438987731934,-0.267397940158844
1788093365991558100,10.00055810546875,2.664407968521118,9.573384284973145,-0.30209386348724365
1788093366001622000,10.0106220703125,-0.4977070987224579,9.59372329711914,-1.2329018115997314
1788093366011686000,10.020685791015625,-0.23958136141300201,9.422337532043457,-1.3591232299804688
1788093366021749500,10.03074951171875,-0.2841476798057556,9.22253704071045,-1.0094720125198364
1788093366041876500,10.05087646484375,1.2954143285751343,9.746265411376953,-0.03170489892363548
1788093366051940900,10.06094091796875,3.340679407119751,9.078967094421387,0.20159530639648438
1788093366062104800,10.071104736328126,2.4385852813720703,9.236295700073242,-0.40707895159721375
1788093366072217900,10.0812177734375,0.8500502705574036,10.336395263671875,-1.0067801475524902
1788093366082230500,10.09123046875,-0.6008976101875305,8.837890625,-0.8560323119163513
1788093366102708500,10.11170849609375,1.4880366325378418,8.43559741973877,-1.0495518445968628
1788093366112973600,10.1219736328125,1.0393823385238647,9.4692964553833,-1.2643076181411743
1788093366123187500,10.1321875,0.7151548862457275,11.508280754089355,-1.2640085220336914
1788093366133401000,10.142401123046875,1.3334003686904907,10.879566192626953,-0.5919244885444641
1788093366143615000,10.152614990234374,3.026322364807129,9.23599624633789,0.01824527233839035
1788093366153831200,10.1628310546875,3.73459792137146,9.957432746887207,-0.22133609652519226
1788093366163900700,10.172900634765625,2.0383858680725098,9.823433876037598,-0.3358924686908722
1788093366174164700,10.183164794921876,-0.5524429082870483,8.69372272491455,0.15284155309200287
1788093366184404000,10.193404052734374,-0.636191725730896,8.680861473083496,-0.34307095408439636
1788093366194668500,10.20366845703125,-1.2990036010742188,10.717751502990723,-1.1715857982635498
1788093366204882700,10.213882568359375,0.6625127792358398,10.589735984802246,-2.030609130859375
1788093366215096600,10.2240966796875,2.0554347038269043,8.558527946472168,-0.024825535714626312
1788093366225361000,10.23436083984375,3.791128396987915,11.744272232055664,0.4660021960735321
1788093366245839600,10.254839599609374,-0.36221352219581604,10.182955741882324,0.4576273262500763
1788093366255757300,10.26475732421875,1.7156537771224976,9.11276626586914,0.6475576162338257
1788093366265796600,10.274796630859376,3.727419376373291,8.546863555908203,0.4447658956050873
1788093366275860200,10.284860107421874,1.5460625886917114,6.896114826202393,0.5156532526016235
1788093366285923300,10.29492333984375,1.1937193870544434,9.832706451416016,-1.1386845111846924
1788093366316115500,10.325115478515626,0.4462614357471466,9.104690551757812,-0.4537389874458313
1788093366326179600,10.3351796875,5.380859851837158,9.555737495422363,-0.46779683232307434
1788093366336243500,10.345243408203125,4.3752760887146,9.47228717803955,0.34277185797691345
1788093366346357200,10.355357177734374,3.7271203994750977,9.400801658630371,0.07208377867937088
1788093366366860500,10.375860595703125,0.28624141216278076,10.240084648132324,0.5850451588630676
1788093366377125400,10.38612548828125,-2.5995028018951416,8.660223007202148,0.5344967842102051
1788093366387339300,10.39633935546875,0.3083750307559967,10.129416465759277,-0.8392825126647949
1788093366397603300,10.406603271484375,-0.35503506660461426,9.840782165527344,-0.5730810165405273
1788093366407817200,10.416817138671876,1.444367527961731,9.877870559692383,-0.7666005492210388
1788093366418031400,10.42703125,3.7689948081970215,10.398309707641602,-1.8472590446472168
1788093366428295400,10.43729541015625,2.6913273334503174,9.795618057250977,-1.781456470489502
1788093366448774400,10.4577744140625,0.01196411345154047,9.221639633178711,-0.012263216078281403
1788093366458988000,10.467988037109375,0.4292125701904297,9.908080101013184,0.20787647366523743
1788093366469252900,10.4782529296875,0.9529415965080261,9.420243263244629,0.24825534224510193
1788093366479467000,10.488467041015625,2.228914260864258,9.303893089294434,-0.06011966988444328
1788093366489689900,10.49868994140625,2.536691188812256,10.232307434082031,-0.31734809279441833
1788093366510044200,10.519044189453124,1.0950154066085815,9.296713829040527,0.011066804639995098
1788093366520309200,10.529309326171875,2.334198474884033,10.258030891418457,-0.4061816334724426
1788093366530523100,10.539523193359376,1.1171491146087646,10.175179481506348,-0.6305087804794312
1788093366540737000,10.549737060546875,0.13250255584716797,8.244171142578125,-0.05114658549427986
1788093366551001300,10.56000146484375,2.5935206413269043,10.197611808776855,-1.1147562265396118
1788093366561215700,10.5702158203125,-0.07776673883199692,11.122736930847168,-1.1416754722595215
1788093366581548800,10.590548828125,-0.17198412120342255,9.562915802001953,0.5802595019340515
1788093366591612700,10.60061279296875,2.17627215385437,8.691329956054688,1.103689432144165
1788093366601676500,10.610676513671875,1.5149558782577515,8.320741653442383,1.5460625886917114
1788093366611740400,10.620740478515625,2.1484556198120117,8.608179092407227,0.4950151741504669
1788093366621804000,10.630803955078125,1.1395817995071411,9.765408515930176,-0.4941178858280182
1788093366641930800,10.6509306640625,-1.0028917789459229,10.545169830322266,-1.5107684135437012
1788093366651995400,10.660995361328125,1.6375880241394043,10.034601211547852,-1.337288737297058
1788093366662159400,10.671159423828126,3.1396822929382324,9.094221115112305,-0.6218347549438477
1788093366682285000,10.69128515625,1.9630118608474731,10.173384666442871,-0.47228336334228516
1788093366692549400,10.70154931640625,0.9302098155021667,9.38614559173584,0.5069792866706848
1788093366713028000,10.722028076171876,2.2474586963653564,8.986544609069824,-0.4145565330982208
1788093366723241700,10.73224169921875,1.6803597211837769,11.684152603149414,-1.6588243246078491
1788093366733506600,10.742506591796875,1.3061820268630981,10.829017639160156,-1.8131613731384277
1788093366743720700,10.752720703125,2.7825536727905273,10.470094680786133,-0.747757077217102
1788093366753924000,10.762924072265625,1.607378602027893,10.38784122467041,0.4214358925819397
1788093366774019600,10.78301953125,-0.5542375445365906,7.432106971740723,1.454537034034729
1788093366784083500,10.79308349609375,0.5000999569892883,9.565608024597168,-0.2793620526790619
1788093366794147300,10.803147216796875,1.1521440744400024,9.949954986572266,-1.6618152856826782
1788093366804211000,10.8132109375,1.036391258239746,9.06580638885498,-1.282852053642273
1788093366814274800,10.82327490234375,2.20947265625,10.154541015625,-1.5945172309875488
1788093366824338700,10.833338623046876,1.552642822265625,11.353943824768066,-1.7353945970535278
1788093366834402600,10.843402587890624,1.3929219245910645,11.5585298538208,-1.316949725151062
1788093366844641500,10.8536416015625,1.3827524185180664,9.073583602905273,0.5204389095306396
1788093366854603500,10.863603515625,2.1332013607025146,8.296215057373047,1.434198021888733
1788093366864742000,10.873741943359375,0.0023928226437419653,9.224630355834961,1.0758728981018066
1788093366874905300,10.8839052734375,0.17736798524856567,9.405587196350098,0.37148571014404297
1788093366885018600,10.8940185546875,2.4388844966888428,10.651948928833008,-0.43938204646110535
1788093366905320700,10.91432080078125,0.8620143532752991,9.514162063598633,-0.9771689176559448
1788093366915534300,10.924534423828124,1.2816556692123413,10.339685440063477,-0.9373882412910461
1788093366925748200,10.934748291015625,0.25782662630081177,9.558428764343262,-0.2225325107574463
1788093366936012800,10.9450126953125,0.45523449778556824,8.786744117736816,-0.43579283356666565
1788093366946227200,10.955227294921874,0.9388837814331055,10.218548774719238,-0.23210379481315613
1788093366966495500,10.97549560546875,3.539881944656372,8.806783676147461,-0.08225327730178833
1788093366976554500,10.985554443359375,2.8956143856048584,8.051548957824707,0.1540379524230957
1788093366986743300,10.995743408203126,1.8391833305358887,9.598508834838867,-0.13848461210727692
1788093366996806000,11.005805908203126,-0.6990033388137817,10.957632064819336,-0.3281157910823822
1788093367006868700,11.01586865234375,-0.33110684156417847,9.582955360412598,-0.776171863079071
1788093367027321600,11.036321533203125,1.5535401105880737,8.98803997039795,-0.4794618487358093
1788093367037586700,11.046586669921876,-1.7665013074874878,9.33858871459961,0.10797612369060516
1788093367047800600,11.056800537109375,-0.4944169819355011,10.409975051879883,-0.33439695835113525
1788093367058014200,11.06701416015625,3.579662561416626,11.343175888061523,-0.786640465259552
1788093367068278800,11.07727880859375,3.6792638301849365,9.047561645507812,-0.3113660514354706
1788093367078445000,11.087445068359376,5.399105072021484,9.22253704071045,-0.5679962635040283
1788093367098578700,11.10757861328125,0.05353940650820732,8.804390907287598,-0.8162516355514526
1788093367108642300,11.117642333984374,-0.24107688665390015,9.411270141601562,-1.2355937957763672
1788093367118706400,11.12770654296875,-1.210469126701355,9.854840278625488,-1.0872387886047363
1788093367128870100,11.1378701171875,2.529512643814087,10.07587718963623,-1.7973089218139648
1788093367139033600,11.14803369140625,1.3803595304489136,10.003793716430664,-0.8327022790908813
1788093367159210500,11.16821044921875,2.621636390686035,9.941280364990234,-0.09092725813388824
1788093367169474600,11.178474609375,1.3160524368286133,7.409375190734863,1.9432710409164429
1788093367179739000,11.18873876953125,1.6244274377822876,8.219644546508789,0.9128618240356445
1788093367189952500,11.198952392578125,-0.4462614357471466,11.166705131530762,0.18424734473228455
1788093367200166400,11.20916650390625,-1.5427724123001099,11.392827033996582,-0.008374879136681557
1788093367210424300,11.21942431640625,2.300100803375244,9.373284339904785,0.24167509377002716
1788093367230666800,11.239666748046876,1.173978567123413,10.806585311889648,-1.085145115852356
1788093367240729900,11.249729736328124,-0.6786643266677856,8.456534385681152,-1.103988528251648
1788093367250794000,11.2597939453125,3.220440149307251,10.334002494812012,-2.078465461730957
1788093367260933000,11.26993310546875,1.8044873476028442,10.634002685546875,-2.1969103813171387
1788093367271096600,11.2800966796875,0.1821536272764206,8.597412109375,-0.6305087804794312
1788093367281058800,11.290058837890625,2.040778636932373,9.41037368774414,0.05024927482008934
1788093367291323000,11.300322998046875,1.3058829307556152,10.159326553344727,0.5569294691085815
1788093367311801600,11.320801513671874,-0.4576273262500763,9.072985649108887,0.9077770709991455
1788093367322015500,11.331015380859375,0.09511470049619675,10.015159606933594,0.4713860750198364
1788093367332280000,11.341280029296875,1.2702897787094116,8.84207820892334,-0.6933203339576721
1788093367342494500,11.351494384765624,3.0738797187805176,8.37129020690918,-1.3181462287902832
1788093367352728300,11.361728271484376,4.058227062225342,10.48654556274414,-2.230409860610962
1788093367372818700,11.381818603515624,0.38733816146850586,11.534302711486816,-0.8270193338394165
1788093367382882600,11.391882568359375,-0.3658027648925781,10.857133865356445,0.8186444640159607
1788093367392946400,11.401946533203125,2.729612350463867,9.087042808532715,1.8936200141906738
1788093367403010000,11.412010009765625,4.72373104095459,6.353542327880859,0.9529415965080261
1788093367423138000,11.432137939453124,-0.6478567123413086,10.543673515319824,-1.923829436302185
1788093367433201700,11.44220166015625,-1.9770697355270386,12.948760032653809,-3.13220477104187
1788093367443415600,11.45241552734375,-3.656233072280884,11.07727336883545,-0.7537391185760498
1788093367453428000,11.462427978515626,0.21206390857696533,10.301400184631348,0.791725218296051
1788093367463516200,11.47251611328125,2.65633225440979,8.34317398071289,2.6306095123291016
1788093367473704700,11.48270458984375,3.0765717029571533,6.73938512802124,2.606980323791504
1788093367483793000,11.49279296875,4.71445894241333,10.176375389099121,-0.5694918036460876
1788093367504119800,11.513119873046875,2.4577279090881348,10.919944763183594,-2.349153518676758
1788093367514308600,11.52330859375,3.026322364807129,10.460224151611328,-1.2239288091659546
1788093367524522500,11.5335224609375,0.5883352756500244,9.708579063415527,-0.07477571070194244
1788093367534786800,11.543786865234376,-2.0982062816619873,8.48734188079834,0.39451664686203003
1788093367545001200,11.554001220703125,-1.0378868579864502,7.093223571777344,0.2186441719532013
1788093367565300000,11.574300048828125,-2.5480570793151855,9.591928482055664,-0.2988037168979645
1788093367585517800,11.594517822265624,-0.4618147611618042,9.760024070739746,1.323829174041748
1788093367595630800,11.604630859375,4.607080936431885,12.269198417663574,0.15284155309200287
1788093367605643300,11.614643310546874,6.422036647796631,8.372785568237305,-0.25274190306663513
1788093367626121500,11.63512158203125,6.280561447143555,11.267203330993652,-1.5125629901885986
1788093367636385500,11.645385498046876,-0.48813581466674805,8.564809799194336,-1.695314884185791
1788093367646599400,11.655599365234375,-0.5506483316421509,10.898110389709473,-1.1446665525436401
1788093367656737800,11.66573779296875,-1.760818362236023,10.055538177490234,-0.01615155301988125
1788093367666851000,11.67585107421875,0.05473581701517105,9.224630355834961,0.13250255584716797
1788093367687127800,11.6961279296875,3.2090742588043213,10.615757942199707,-1.9764715433120728
1788093367697355000,11.70635498046875,2.9428727626800537,11.42243766784668,-2.0644078254699707
1788093367707442200,11.716442138671875,1.573280930519104,9.05264663696289,-0.14386846125125885
1788093367727645400,11.7366455078125,1.241276741027832,9.69212818145752,1.363609790802002
1788093367737884400,11.746884521484375,-1.3558331727981567,11.734402656555176,0.10648060590028763
1788093367748148700,11.757148681640626,0.22761724889278412,10.683953285217285,-0.9897312521934509
1788093367768627500,11.77762744140625,0.3655036687850952,9.742377281188965,0.380458801984787
1788093367778891500,11.7878916015625,0.8659027218818665,9.59791088104248,0.9622138142585754
1788093367789105400,11.79810546875,2.3249263763427734,10.03848934173584,0.7606185078620911
1788093367799319600,11.808319580078125,2.0419750213623047,11.11765193939209,-0.6526423692703247
1788093367809583900,11.818583984375,-0.5763711333274841,10.124032974243164,-0.8497511148452759
1788093367830062300,11.839062255859375,2.9506494998931885,8.217551231384277,0.49172505736351013
1788093367840326700,11.84932666015625,2.1699910163879395,7.122535705566406,0.3690928816795349
1788093367850540500,11.85954052734375,1.8385851383209229,7.819146156311035,-0.5201398134231567
1788093367860754400,11.86975439453125,1.7488542795181274,10.299904823303223,-1.2693923711776733
1788093367870971400,11.879971435546874,-0.6218347549438477,11.111968994140625,-1.7440686225891113
1788093367881044500,11.89004443359375,-0.6314060688018799,10.594820022583008,-0.9302098155021667
1788093367891108000,11.900108154296875,-0.778863787651062,10.568499565124512,0.32931220531463623
1788093367901172200,11.910172119140626,0.6367899179458618,10.538290023803711,1.1225329637527466
1788093367911386000,11.92038623046875,2.0425732135772705,8.543573379516602,1.9980069398880005
1788093367921449000,11.930448974609375,3.559323787689209,7.451549053192139,1.8092730045318604
1788093367941726500,11.9507265625,1.5436697006225586,8.826225280761719,-0.9667003750801086
1788093367951990500,11.960990478515624,1.4165509939193726,9.805487632751465,-2.274078845977783
1788093367972468700,11.98146875,0.48454657196998596,10.449456214904785,-1.7464613914489746
1788093367982732800,11.99173291015625,1.109073281288147,9.180662155151367,-0.06550352275371552
1788093367992946700,12.00194677734375,1.7907286882400513,9.657133102416992,0.5644070506095886
1788093368003110700,12.012110595703126,2.0679969787597656,9.061020851135254,0.3768695592880249
1788093368013157600,12.02215771484375,2.2947168350219727,9.259325981140137,0.9143573641777039
1788093368033308400,12.042308349609375,1.327418327331543,11.104790687561035,0.07926224917173386
1788093368043547400,12.05254736328125,-1.0612168312072754,8.373981475830078,0.7537391185760498
1788093368053811500,12.0628115234375,0.1423729509115219,7.916653633117676,1.2529417276382446
1788093368064000300,12.073000244140625,0.27427729964256287,9.667003631591797,0.5150550603866577
1788093368074239200,12.0832392578125,1.5242279767990112,11.005189895629883,-1.4243277311325073
1788093368084503300,12.09350341796875,2.0985054969787598,11.129915237426758,-1.1901301145553589
1788093368104946000,12.11394580078125,2.5740790367126465,11.90877914428711,0.48095735907554626
1788093368115180000,12.124179931640626,1.2065808773040771,8.730213165283203,1.5143576860427856
1788093368125394000,12.134393798828125,2.421536445617676,7.110571384429932,1.3776676654815674
1788093368135658500,12.144658447265625,2.0246269702911377,8.442476272583008,-0.38255253434181213
1788093368145873000,12.154872802734374,-2.4323041439056396,8.898907661437988,-1.5858432054519653
1788093368166325800,12.17532568359375,-2.7681965827941895,11.720643043518066,-0.9514461159706116
1788093368176590600,12.185590576171874,0.0011964113218709826,10.86700439453125,-0.5306084156036377
1788093368186804500,12.195804443359375,4.746462821960449,9.014659881591797,-0.2069791555404663
1788093368196884000,12.205884033203125,9.321539878845215,9.447162628173828,-0.2952145040035248
1788093368206862800,12.21586279296875,7.262516021728516,10.042377471923828,0.12233305722475052
1788093368227191000,12.23619091796875,1.007677435874939,10.697412490844727,0.5874379873275757
1788093368237102600,12.2461025390625,-0.4866403043270111,10.374680519104004,0.1456630825996399
1788093368247316500,12.25631640625,-0.974177896976471,8.643473625183105,-0.21326032280921936
1788093368257530400,12.2665302734375,1.0342975854873657,9.219844818115234,-0.999900758266449
1788093368267795000,12.276794921875,1.9091733694076538,9.923035621643066,-1.8098711967468262
1788093368278009300,12.28700927734375,0.2665006220340729,9.418149948120117,-1.7303098440170288
1788093368298487300,12.3074873046875,2.111665964126587,10.502696990966797,-0.05234299600124359
1788093368308736800,12.31773681640625,2.002493381500244,10.188340187072754,0.7719843983650208
1788093368318948600,12.327948486328125,2.0324037075042725,8.78195858001709,1.3570295572280884
1788093368329011500,12.338011474609376,2.109572172164917,9.853643417358398,1.1371889114379883
1788093368339074300,12.34807421875,1.979163408279419,11.00160026550293,0.4992026388645172
1788093368349338600,12.358338623046874,1.1327024698257446,8.340482711791992,0.2599203586578369
1788093368369792000,12.3787919921875,0.32572299242019653,11.413166046142578,-1.4416756629943848
1788093368380006000,12.389005859375,-1.170987606048584,11.720942497253418,-1.337886929512024
1788093368390270700,12.399270751953125,0.2189432680606842,8.973981857299805,0.015254244208335876
1788093368400484900,12.40948486328125,4.423132419586182,7.491329669952393,0.6023930907249451
1788093368410667500,12.41966748046875,4.972285270690918,7.302894592285156,0.8949156403541565
1788093368430784800,12.43978466796875,2.2902302742004395,10.280762672424316,-1.2239288091659546
1788093368440847600,12.44984765625,-0.5709872841835022,13.593924522399902,-2.2438695430755615
1788093368450912300,12.459912353515625,-4.053142547607422,10.688140869140625,-1.6310077905654907
1788093368460975900,12.469975830078125,-1.83828604221344,8.086843490600586,-0.2306082844734192
1788093368471039500,12.48003955078125,0.3233301639556885,8.52891731262207,1.2628121376037598
1788093368491168000,12.50016796875,3.6945180892944336,8.625826835632324,0.19292132556438446
1788093368501232000,12.510232177734375,3.417548894882202,11.699706077575684,-1.2708879709243774
1788093368511446000,12.520446044921876,0.8898309469223022,13.19252872467041,-1.8131613731384277
1788093368521508900,12.5305087890625,0.2844468057155609,9.919445991516113,0.22103698551654816
1788093368541786400,12.550786376953125,5.103591442108154,9.430413246154785,0.12711870670318604
1788093368562289700,12.57128955078125,-0.3287140130996704,11.629117965698242,-2.1628124713897705
1788093368572528600,12.581528564453125,-0.8135597109794617,10.851749420166016,-1.44945228099823
1788093368592906000,12.601906005859375,-2.00518536567688,7.452445983886719,0.4016951024532318
1788093368603119900,12.612119873046876,-2.3988046646118164,10.124032974243164,0.844367265701294
1788093368613384200,12.62238427734375,-0.47706902027130127,9.302098274230957,0.8617152571678162
1788093368623597800,12.632597900390625,4.465904235839844,10.13898754119873,0.8111668825149536
1788093368633786600,12.64278662109375,3.958326816558838,12.31226921081543,0.25274190306663513
1788093368654113800,12.66311376953125,3.970889091491699,9.808479309082031,-0.6891329288482666
1788093368664176600,12.6731767578125,3.7148571014404297,9.270393371582031,-0.3616153299808502
1788093368674365400,12.683365478515626,2.712862730026245,8.350651741027832,-0.8264211416244507
1788093368684579000,12.6935791015625,-2.3647069931030273,8.329116821289062,0.4256233274936676
1788093368694841000,12.703841064453124,0.06340979784727097,9.440881729125977,-1.2699905633926392
1788093368705051000,12.71405078125,0.4334000051021576,10.729416847229004,-1.3806586265563965
1788093368725554200,12.73455419921875,4.014857292175293,9.65384292602539,-1.2589237689971924
1788093368735819000,12.744819091796876,2.551347255706787,11.059027671813965,0.18394823372364044
1788093368746033200,12.755033203125,0.7570292353630066,8.520243644714355,0.4531407952308655
1788093368756297200,12.765297119140625,4.6459641456604,9.021839141845703,0.17527425289154053
1788093368766511000,12.775510986328126,1.5056836605072021,11.420044898986816,-0.8760721683502197
1788093368776725000,12.78572509765625,0.17617157101631165,12.323335647583008,-2.0518453121185303
1788093368786989300,12.7959892578125,-0.1295115202665329,8.94137954711914,-0.18933209776878357
1788093368797254100,12.806254150390625,3.000898599624634,8.656036376953125,-0.06131608039140701
1788093368807468000,12.816468017578124,1.7416757345199585,10.68544864654541,0.43190449476242065
1788093368817682000,12.826681884765625,0.22372891008853912,7.928318500518799,0.37417763471603394
1788093368827946500,12.836946533203125,1.277468204498291,8.970393180847168,0.3846462368965149
1788093368838161000,12.847160888671874,-0.21146570146083832,11.075478553771973,-0.22552353143692017
1788093368848404500,12.857404541015624,-0.8051848411560059,7.0770721435546875,-0.706480860710144
1788093368868739800,12.87773974609375,4.960620403289795,11.67577838897705,-1.2526426315307617
1788093368879004700,12.888004638671875,0.9759725332260132,10.727622032165527,-2.1062822341918945
1788093368889218600,12.898218505859376,0.3326023519039154,10.5361967086792,-0.272482693195343
1788093368899432400,12.908432373046875,-0.9029914736747742,11.529815673828125,0.21714866161346436
1788093368909696800,12.91869677734375,-2.5262224674224854,11.123634338378906,0.6936194896697998
1788093368930175500,12.939175537109374,4.2245283126831055,6.725925445556641,1.5409778356552124
1788093368940269300,12.949269287109376,5.242674350738525,9.351449966430664,0.1417747437953949
1788093368950334000,12.959333984375,1.1718848943710327,8.256434440612793,-1.8738791942596436
1788093368960472800,12.969472900390626,0.914058268070221,10.440483093261719,-3.016152858734131
1788093368970737400,12.9797373046875,0.698704183101654,12.294322967529297,-2.362314224243164
1788093368980951800,12.989951904296875,-0.7163512706756592,9.126225471496582,-1.4727823734283447
1788093369001253600,13.010253662109376,3.3924243450164795,9.980762481689453,0.9119645357131958
1788093369011467500,13.020467529296875,2.181356906890869,11.697612762451172,0.1941177397966385
1788093369021681400,13.030681396484376,-1.6962121725082397,8.802297592163086,1.7560327053070068
1788093369031945500,13.040945556640626,1.4455640316009521,9.83420181274414,0.9038887619972229
1788093369042138400,13.051138427734376,1.6510475873947144,11.478669166564941,0.3436691462993622
1788093369052231400,13.0612314453125,0.5120640397071838,8.741579055786133,-0.5407779216766357
1788093369072534000,13.081533935546876,3.008376359939575,11.183753967285156,-1.7377874851226807
1788093369082546400,13.09154638671875,0.5566303730010986,11.565408706665039,-2.4257240295410156
1788093369092660200,13.10166015625,0.7462615370750427,10.955538749694824,-0.7357929348945618
1788093369102874400,13.111874267578125,0.45553362369537354,10.173982620239258,0.8264211416244507
1788093369113138400,13.122138427734376,-1.0043872594833374,8.48734188079834,1.7682958841323853
1788093369133616600,13.14261669921875,-0.29730820655822754,8.966205596923828,0.4995017349720001
1788093369143830300,13.152830322265626,-0.3164508044719696,11.139187812805176,-1.2562319040298462
1788093369154082300,13.163082275390625,-1.7117655277252197,10.46471118927002,-1.1377872228622437
1788093369164192300,13.173192138671874,1.5185450315475464,10.658529281616211,-1.2708879709243774
1788093369174256000,13.183256103515625,4.360022068023682,11.164312362670898,-0.5422734022140503
1788093369194384400,13.20338427734375,7.756633758544922,9.378069877624512,-0.2560320198535919
1788093369204598300,13.213598388671874,3.104687452316284,9.083752632141113,0.3535395562648773
1788093369214610700,13.223610595703125,-2.124826431274414,11.706585884094238,-0.3038884699344635
1788093369224724000,13.233723876953125,-1.6869399547576904,9.469595909118652,-0.5485545992851257
1788093369234887400,13.243887451171876,1.4009976387023926,9.34457015991211,-0.913759171962738
1788093369245000700,13.254000732421876,3.9326040744781494,7.750352382659912,-1.542473316192627
1788093369265302500,13.274302490234374,0.22402802109718323,10.44915771484375,-2.039283037185669
1788093369275516400,13.284516357421875,0.2682952284812927,13.359726905822754,-1.3360923528671265
1788093369285730300,13.294730224609374,-2.0742781162261963,8.93838882446289,1.9657038450241089
1788093369295995000,13.304994873046875,4.426722049713135,7.93998384475708,2.7774689197540283
1788093369306209000,13.315208984375,2.7421748638153076,10.10997486114502,2.890230655670166
1788093369326477800,13.335477783203125,0.7597211599349976,9.267701148986816,-0.6394818425178528
1788093369336537000,13.345537109375,2.223231315612793,11.606086730957031,-1.6414763927459717
1788093369346726000,13.355725830078125,1.093519926071167,11.269895553588867,-1.8556339740753174
1788093369356788700,13.365788818359375,0.5910272002220154,7.192226886749268,-0.4244269132614136
1788093369366851600,13.3758515625,3.526123285293579,7.897810459136963,-0.6296114325523376
1788093369387304400,13.396304443359375,1.3334003686904907,8.57348346710205,-1.2487542629241943
1788093369397569500,13.406569580078125,0.6894320249557495,8.677870750427246,-0.7585247755050659
1788093369407783200,13.416783203125,0.6951149702072144,11.670095443725586,0.018843477591872215
1788093369417997000,13.4269970703125,-3.060420274734497,10.829915046691895,-0.1666002720594406
1788093369428261600,13.43726171875,0.6149554252624512,10.061819076538086,0.36610186100006104
1788093369438428200,13.44742822265625,2.9688947200775146,8.641080856323242,1.7099708318710327
1788093369458762200,13.46776220703125,3.9095730781555176,9.329915046691895,-0.014656038954854012
1788093369468674000,13.477674072265625,1.2430713176727295,11.680563926696777,-1.9055840969085693
1788093369478888000,13.487887939453126,1.3827524185180664,12.364313125610352,-2.7804598808288574
1788093369489101800,13.498101806640625,0.6436693072319031,8.691629409790039,-0.5958128571510315
1788093369499315700,13.508315673828125,1.5954145193099976,7.131209850311279,0.659521758556366
1788093369509580000,13.518580078125,1.602592945098877,9.900303840637207,0.47706902027130127
1788093369530058800,13.539058837890625,-1.337886929512024,11.39551830291748,-0.9146564602851868
1788093369550395400,13.5593955078125,0.7408776879310608,8.475378036499023,0.8105686902999878
1788093369560459300,13.569459228515624,5.276174068450928,7.497012615203857,0.7307082414627075
1788093369570523400,13.5795234375,6.4354963302612305,9.478867530822754,-0.6239284873008728
1788093369580587300,13.589587158203125,5.967400550842285,12.431611061096191,-2.420041084289551
1788093369590651400,13.5996513671875,-0.584446907043457,10.771590232849121,-1.1871391534805298
1788093369600714200,13.60971435546875,-1.0582258701324463,10.458130836486816,-0.6376872062683105
1788093369610778600,13.619778564453124,-2.0108683109283447,9.407979965209961,0.9708877801895142
1788093369620842500,13.629842529296875,-0.06699903309345245,8.24267578125,1.2317054271697998
1788093369630906000,13.639906005859375,3.3430724143981934,8.044370651245117,0.2560320198535919
1788093369651235000,13.660235107421874,-1.9680966138839722,10.951351165771484,-1.495514154434204
1788093369661146600,13.670146728515626,-0.10438688844442368,11.145468711853027,-0.9152546525001526
1788093369671360500,13.680360595703124,2.1526429653167725,10.43240737915039,0.5961119532585144
1788093369681574400,13.690574462890625,3.783052682876587,7.47846794128418,0.5919244885444641
1788093369691839000,13.7008388671875,4.219742774963379,7.508378505706787,0.10199406743049622
1788093369702053400,13.711053466796875,1.6980067491531372,11.38953685760498,-1.0815558433532715
1788093369712317400,13.7213173828125,-1.1324033737182617,12.840784072875977,-2.1678972244262695
1788093369732781300,13.74178125,1.7015960216522217,7.767102241516113,0.41904306411743164
1788093369742868200,13.7518681640625,3.728017568588257,9.228219985961914,0.21415762603282928
1788093369752932400,13.761932373046875,2.3808584213256836,8.81934642791748,-0.23330020904541016
1788093369762996000,13.771995849609375,2.762812852859497,8.569295883178711,-0.7354938387870789
1788093369783124000,13.7921240234375,-1.0621141195297241,11.034202575683594,-1.2320045232772827
1788093369793188000,13.80218798828125,1.2834502458572388,10.231111526489258,-0.7549355626106262
1788093369803402000,13.812402099609375,3.19860577583313,9.674779891967773,0.6352944374084473
1788093369813414400,13.822414306640624,2.145763635635376,7.549056529998779,1.150349497795105
1788093369823502300,13.83250244140625,2.1708884239196777,8.43021297454834,0.5431707501411438
1788093369833767000,13.842766845703125,0.5644070506095886,10.625628471374512,-1.6806588172912598
1788093369843981300,13.852981201171875,-0.4618147611618042,12.324831008911133,-2.1954147815704346
1788093369864308500,13.87330859375,4.8589253425598145,8.440681457519531,-0.5470590591430664
1788093369874497000,13.8834970703125,6.15254545211792,9.378069877624512,0.47198426723480225
1788093369884711000,13.8937109375,0.10677970945835114,8.0383882522583,0.27367907762527466
1788093369894969600,13.903969482421875,0.6664010882377625,11.888440132141113,-0.6212365627288818
1788093369905149000,13.91414892578125,-1.3510475158691406,11.993724822998047,-0.6137589812278748
1788093369925277400,13.93427734375,2.5328028202056885,6.861119747161865,0.36281174421310425
1788093369935341300,13.94434130859375,3.477668523788452,9.075976371765137,0.6915257573127747
1788093369945405000,13.954405029296876,0.18095721304416656,10.692328453063965,-0.45912283658981323
1788093369955518700,13.964518798828125,-1.0965110063552856,10.128219604492188,-1.3489537239074707
1788093369965732600,13.974732666015624,-1.4264214038848877,9.998409271240234,-1.129412293434143
1788093369985908500,13.994908447265624,3.219841957092285,5.9554362297058105,0.7474579811096191
1788093369996172500,14.005172607421875,4.359124660491943,9.090034484863281,-0.41904306411743164
1788093370006386400,14.015386474609375,3.0616166591644287,13.058231353759766,-1.2556337118148804
1788093370016600300,14.025600341796874,-1.672582983970642,12.042478561401367,-0.9616156220436096
1788093370026865000,14.035864990234375,1.5080764293670654,9.695717811584473,0.8219345808029175
1788093370037077200,14.0460771484375,3.1749765872955322,8.212167739868164,1.7673985958099365
1788093370057366300,14.0663662109375,2.0195422172546387,8.578866958618164,-1.119242787361145
1788093370067430100,14.07643017578125,-0.4995017349720001,10.853245735168457,-2.568695068359375
1788093370077494300,14.086494384765626,-1.6444673538208008,12.200404167175293,-2.480160713195801
1788093370087633200,14.096633056640625,-0.4588237404823303,10.430612564086914,-0.41485562920570374
1788093370097872400,14.106872314453126,4.745565414428711,9.047860145568848,0.25722843408584595
1788093370108136700,14.11713671875,6.4441704750061035,9.452547073364258,0.6634100675582886
1788093370128615400,14.137615478515626,-0.8593224287033081,11.118549346923828,0.4163511395454407
1788093370138879500,14.14787939453125,-1.6007983684539795,12.338589668273926,0.15613168478012085
1788093370149093400,14.15809326171875,-1.6055840253829956,9.80518913269043,0.09002995491027832
1788093370159307300,14.168307373046876,4.276871204376221,9.100801467895508,0.16779668629169464
1788093370169571800,14.17857177734375,3.59043025970459,8.715258598327637,-0.545264482498169
1788093370190050300,14.19905029296875,-0.6074778437614441,10.58495044708252,-1.7380865812301636
1788093370200113400,14.209113525390626,0.6954140663146973,11.982956886291504,-1.4090734720230103
1788093370210302000,14.219302001953125,-0.4812564551830292,10.28734302520752,-0.22582264244556427
1788093370220440300,14.2294404296875,0.5306084156036377,7.760821342468262,1.9746768474578857
1788093370230553600,14.2395537109375,1.2370892763137817,7.270591735839844,2.1098713874816895
1788093370251031600,14.260031494140625,-0.7202396392822266,10.531709671020508,-0.9541380405426025
1788093370261161700,14.27016162109375,0.5135595798492432,11.388041496276855,-1.6824533939361572
1788093370271375400,14.280375244140625,3.5371899604797363,11.262417793273926,-0.649053156375885
1788093370281438200,14.290438232421875,5.291129112243652,7.934001445770264,-0.14356936514377594
1788093370291501600,14.30050146484375,6.972984313964844,9.280562400817871,-0.03768695518374443
1788093370301715700,14.3107158203125,2.988635540008545,8.555537223815918,-0.1372881978750229
1788093370332458000,14.3414580078125,-1.3923237323760986,10.312467575073242,-0.5096712112426758
1788093370342672000,14.351671875,1.4321043491363525,7.985447406768799,0.7130611538887024
1788093370352926000,14.361926025390625,4.111766815185547,6.855735778808594,1.0477572679519653
1788093370363058700,14.37205859375,2.5782663822174072,8.681758880615234,-0.388235479593277
1788093370383187000,14.39218701171875,-1.3420743942260742,11.418848991394043,-0.7028916478157043
1788093370393251000,14.4022509765625,3.488436222076416,9.361021041870117,0.5706881880760193
1788093370403465000,14.41246484375,3.4005000591278076,7.337291717529297,2.171187400817871
1788093370413477000,14.42247705078125,1.40488600730896,9.207880973815918,0.50129634141922
1788093370423590400,14.43259033203125,0.6622136831283569,11.272587776184082,-0.9436694383621216
1788093370433829400,14.442829345703124,-0.3038884699344635,11.924332618713379,-1.3980066776275635
1788093370444093700,14.45309375,0.059820566326379776,8.755637168884277,-0.9667003750801086
1788093370464571600,14.473571533203126,1.6271194219589233,7.319345474243164,0.031405795365571976
1788093370474810600,14.483810546875,3.0846474170684814,11.271988868713379,-1.4611172676086426
1788093370485000200,14.494000244140626,-0.50907301902771,11.243873596191406,-0.5404788255691528
1788093370495148500,14.5041484375,0.7262216806411743,10.674680709838867,-0.15583257377147675
1788093370505237000,14.514237060546876,2.482553482055664,11.252846717834473,1.0157532691955566
1788093370525387800,14.5343876953125,4.82751989364624,9.309874534606934,0.5350949764251709
1788093370535626800,14.544626708984374,2.0808584690093994,10.573285102844238,-0.41605204343795776
1788093370545891000,14.55489111328125,-2.623729944229126,10.465309143066406,-1.4506487846374512
1788093370556105000,14.56510498046875,0.06669992953538895,9.223434448242188,-1.285843014717102
1788093370566369000,14.575369140625,3.9702908992767334,9.7636137008667,-0.7441678643226624
1788093370576583000,14.5855830078125,3.0131618976593018,8.960822105407715,-0.6538388133049011
1788093370597046300,14.60604638671875,-0.9658030271530151,11.33240795135498,-0.4262215197086334
1788093370607110000,14.61610986328125,-0.18813568353652954,12.917952537536621,-0.39960137009620667
1788093370617173800,14.626173828125,-0.16420745849609375,8.08086109161377,0.44416770339012146
1788093370627238000,14.63623779296875,3.605684518814087,7.669295787811279,0.5327021479606628
1788093370637301800,14.6463017578125,0.8961120843887329,9.787242889404297,1.461715579032898
1788093370657429800,14.6664296875,3.2721848487854004,10.583155632019043,-1.1009975671768188
1788093370667493600,14.67649365234375,2.608475685119629,12.28116226196289,-1.2023934125900269
1788093370677557800,14.686557861328126,2.7900311946868896,10.17727279663086,-1.1679965257644653
1788093370687696600,14.696696533203125,3.7148571014404297,7.771289825439453,0.7935197949409485
1788093370697936000,14.706935791015624,1.7602201700210571,7.585845947265625,1.3935201168060303
1788093370708200000,14.717199951171875,-1.5248262882232666,10.20329475402832,-0.5207380056381226
1788093370728679000,14.737678955078126,0.02273181453347206,10.558928489685059,-1.6103696823120117
1788093370749156900,14.758156982421875,5.424529075622559,7.310372352600098,-0.602692186832428
