time,seconds_elapsed,z,y,x
1788093356094751700,0.103751708984375,-0.631248414516449,9.785569190979004,0.1206439882516861
1788093356104814800,0.11381494140625,1.6546019315719604,9.661686897277832,-0.29066184163093567
1788093356114878000,0.1238779296875,1.8311480283737183,9.634140968322754,-0.0249905027449131
1788093356135004000,0.14400390625,2.3163692951202393,9.528547286987305,-0.10773252695798874
1788093356145067300,0.1540673828125,2.1787118911743164,9.560831069946289,-0.11874393373727798
1788093356155130400,0.16413037109375,1.9331327676773071,9.611855506896973,-0.21361631155014038
1788093356165193500,0.174193359375,1.9193631410598755,9.614029884338379,-0.23845982551574707
1788093356175256600,0.184256591796875,2.132211923599243,9.564703941345215,-0.3748190402984619
1788093356185319700,0.194319580078125,2.088562488555908,9.569734573364258,-0.4779853820800781
1788093356195382800,0.2043828125,2.1069884300231934,9.565094947814941,-0.4898490905761719
1788093356205446000,0.21444580078125,2.1695456504821777,9.550466537475586,-0.5020413398742676
1788093356215509000,0.224509033203125,1.9731614589691162,9.59057331085205,-0.5458359718322754
1788093356225572000,0.234572021484375,1.9280143976211548,9.60139274597168,-0.5161435604095459
1788093356235635200,0.24463525390625,1.9401698112487793,9.60158634185791,-0.46441349387168884
1788093356245698300,0.2546982421875,2.0829176902770996,9.572502136230469,-0.44614851474761963
1788093356255761400,0.264761474609375,2.0877530574798584,9.571306228637695,-0.44918352365493774
1788093356265824800,0.27482470703125,2.110687255859375,9.566339492797852,-0.44778382778167725
1788093356275887900,0.284887939453125,2.076892614364624,9.573525428771973,-0.4522427022457123
1788093356285951000,0.294950927734375,2.0547471046447754,9.579339981079102,-0.4297095835208893
1788093356296014000,0.30501416015625,1.9713397026062012,9.596242904663086,-0.44308632612228394
1788093356306077200,0.3150771484375,1.9944037199020386,9.591301918029785,-0.446848064661026
1788093356316140300,0.325140380859375,2.062985420227051,9.577374458312988,-0.4340239465236664
1788093356326203400,0.335203369140625,2.085871934890747,9.57275390625,-0.42650502920150757
1788093356336266500,0.3452666015625,2.0689005851745605,9.575776100158691,-0.4410940408706665
1788093356346329600,0.35532958984375,2.0503923892974854,9.579265594482422,-0.45161935687065125
1788093356356392700,0.365392822265625,2.0270321369171143,9.584455490112305,-0.4469166100025177
1788093356366455800,0.375455810546875,1.9718307256698608,9.596660614013672,-0.4317310154438019
1788093356376519000,0.385518798828125,1.958611011505127,9.599581718444824,-0.4269261956214905
1788093356386582300,0.395582275390625,1.9593138694763184,9.599820137023926,-0.4182532727718353
1788093356396645400,0.405645263671875,2.044079542160034,9.58236026763916,-0.41292324662208557
1788093356406708500,0.41570849609375,2.055511236190796,9.581432342529297,-0.3760535418987274
1788093356416771300,0.425771240234375,2.049417734146118,9.583239555358887,-0.3630191683769226
1788093356426834400,0.43583447265625,2.0079379081726074,9.593048095703125,-0.33465835452079773
1788093356436897800,0.445897705078125,1.980718731880188,9.598995208740234,-0.3262406885623932
1788093356446961000,0.4559609375,1.9678449630737305,9.602239608764648,-0.30814921855926514
1788093356457024000,0.46602392578125,1.9641661643981934,9.60329532623291,-0.29859891533851624
1788093356467087000,0.476087158203125,2.0100460052490234,9.593457221984863,-0.30928835272789
1788093356477150200,0.486150146484375,2.020493268966675,9.591629981994629,-0.29768243432044983
1788093356487213300,0.49621337890625,2.049745798110962,9.58517837524414,-0.3053964674472809
1788093356497276400,0.5062763671875,2.0347416400909424,9.588455200195312,-0.3028954863548279
1788093356507339500,0.516339599609375,2.02388072013855,9.590561866760254,-0.3089047372341156
1788093356517402600,0.526402587890625,1.995016098022461,9.596476554870605,-0.31295934319496155
1788093356527465700,0.5364658203125,1.9808416366577148,9.599352836608887,-0.3148026466369629
1788093356537528800,0.54652880859375,1.9677823781967163,9.6021146774292,-0.3124160170555115
1788093356547592000,0.556592041015625,2.001746892929077,9.595036506652832,-0.31414133310317993
1788093356557655300,0.5666552734375,2.0141236782073975,9.592985153198242,-0.29721543192863464
1788093356567718400,0.576718505859375,2.0488524436950684,9.585493087768555,-0.3014987111091614
1788093356577781500,0.586781494140625,2.061523199081421,9.583050727844238,-0.2926599383354187
1788093356587844600,0.5968447265625,2.042971134185791,9.587072372436523,-0.2910209894180298
1788093356597907700,0.60690771484375,2.0076749324798584,9.594460487365723,-0.2932022213935852
1788093356607970800,0.616970703125,2.0024149417877197,9.595297813415527,-0.3016206920146942
1788093356618034000,0.627033935546875,2.0070242881774902,9.594549179077148,-0.294722318649292
1788093356628097000,0.637096923828125,2.015707492828369,9.592339515686035,-0.3071812391281128
1788093356638160100,0.64716015625,2.026819944381714,9.590001106262207,-0.30704692006111145
1788093356648223200,0.65722314453125,2.018017053604126,9.592010498046875,-0.3022211194038391
1788093356658286300,0.667286376953125,2.045060634613037,9.586320877075195,-0.30092668533325195
1788093356668349400,0.677349365234375,2.0451772212982178,9.586334228515625,-0.2997300326824188
1788093356678412500,0.68741259765625,2.044710159301758,9.586358070373535,-0.3021451532840729
1788093356688475600,0.6974755859375,2.023472547531128,9.590761184692383,-0.3053469657897949
1788093356698538800,0.707538818359375,1.9983417987823486,9.595852851867676,-0.3108518123626709
1788093356708601900,0.717601806640625,1.9950429201126099,9.596506118774414,-0.3118739724159241
1788093356718665000,0.7276650390625,1.9974194765090942,9.59626293182373,-0.30403876304626465
1788093356728728300,0.737728271484375,2.011817693710327,9.593353271484375,-0.30090394616127014
1788093356738791400,0.74779150390625,2.0275466442108154,9.590307235717773,-0.2923269271850586
1788093356748854500,0.7578544921875,2.0335609912872314,9.589137077331543,-0.2888968586921692
1788093356758917600,0.767917724609375,2.0215659141540527,9.592000007629395,-0.2778274118900299
1788093356768980700,0.777980712890625,1.990807056427002,9.598837852478027,-0.26339781284332275
1788093356789107000,0.79810693359375,1.981058955192566,9.601940155029297,-0.2203117161989212
1788093356799170000,0.808170166015625,1.99703049659729,9.599120140075684,-0.19786624610424042
1788093356809233200,0.818233154296875,2.0171096324920654,9.594993591308594,-0.19433359801769257
1788093356819296300,0.828296142578125,2.027506113052368,9.592827796936035,-0.19308486580848694
1788093356829359400,0.838359375,2.0254464149475098,9.592975616455078,-0.20681142807006836
1788093356839422500,0.84842236328125,2.0377776622772217,9.590027809143066,-0.22185280919075012
1788093356849485600,0.858485595703125,2.042659044265747,9.588641166687012,-0.2364179939031601
1788093356859548700,0.868548583984375,2.029365062713623,9.591259002685547,-0.24462473392486572
1788093356869611800,0.87861181640625,2.000753164291382,9.597273826599121,-0.24433642625808716
1788093356879675000,0.8886748046875,1.9907240867614746,9.59958553314209,-0.23526333272457123
1788093356889738000,0.898738037109375,1.9883095026016235,9.600610733032227,-0.21282227337360382
1788093356899801000,0.908801025390625,2.0031397342681885,9.597918510437012,-0.1943865716457367
1788093356909864400,0.918864501953125,2.016329765319824,9.595630645751953,-0.1693299263715744
1788093356919927600,0.928927490234375,2.027071714401245,9.593671798706055,-0.1510864645242691
1788093356929990700,0.93899072265625,2.0407164096832275,9.59097671508789,-0.13793151080608368
1788093356940053800,0.9490537109375,2.045691728591919,9.58998966217041,-0.1327948272228241
1788093356950116900,0.959116943359375,2.04188871383667,9.590754508972168,-0.13608381152153015
1788093356960180000,0.969179931640625,2.0201945304870605,9.595193862915039,-0.14653833210468292
1788093356970243000,0.9792431640625,2.0041985511779785,9.598358154296875,-0.15837551653385162
1788093356980306200,0.98930615234375,2.007970094680786,9.597447395324707,-0.1657012403011322
1788093356990369300,0.999369384765625,2.025195598602295,9.59367561340332,-0.1742311716079712
1788093357000432400,1.009432373046875,2.034637689590454,9.591690063476562,-0.17351776361465454
1788093357010495500,1.01949560546875,2.018404722213745,9.595010757446289,-0.17942871153354645
1788093357020558600,1.02955859375,2.0118589401245117,9.59630012512207,-0.18393905460834503
1788093357030621700,1.03962158203125,2.009887456893921,9.596715927124023,-0.1837512105703354
1788093357040684800,1.049684814453125,2.035719871520996,9.591302871704102,-0.18206632137298584
1788093357050748000,1.059747802734375,2.04478120803833,9.589383125305176,-0.18160122632980347
1788093357060811000,1.06981103515625,2.0298330783843994,9.592520713806152,-0.1836092621088028
1788093357070874000,1.0798740234375,1.9953376054763794,9.599712371826172,-0.18584023416042328
1788093357080937500,1.0899375,1.98024582862854,9.602803230285645,-0.1875598430633545
1788093357091000600,1.10000048828125,1.9747380018234253,9.604020118713379,-0.18333132565021515
1788093357101063700,1.110063720703125,1.9905500411987305,9.600763320922852,-0.18289723992347717
1788093357111126500,1.12012646484375,2.0014805793762207,9.598563194274902,-0.179042786359787
1788093357121189600,1.130189697265625,2.0056045055389404,9.597698211669922,-0.17925837635993958
1788093357131253000,1.1402529296875,2.0115253925323486,9.596369743347168,-0.18396595120429993
1788093357141316000,1.150316162109375,2.010185718536377,9.596566200256348,-0.18831583857536316
1788093357151379200,1.160379150390625,2.003047466278076,9.597983360290527,-0.19212202727794647
1788093357161442300,1.1704423828125,1.98190438747406,9.602279663085938,-0.19660837948322296
1788093357171505400,1.18050537109375,1.9674547910690308,9.605216979980469,-0.19830355048179626
1788093357181568500,1.190568603515625,1.9692243337631226,9.60488224029541,-0.19692902266979218
1788093357191631600,1.200631591796875,1.9909147024154663,9.600420951843262,-0.1963709592819214
1788093357201694700,1.21069482421875,1.9913628101348877,9.600423812866211,-0.19160935282707214
1788093357211757800,1.2207578125,1.9810495376586914,9.602437973022461,-0.19750981032848358
1788093357221821000,1.230821044921875,1.9645155668258667,9.605792999267578,-0.19954992830753326
1788093357231884000,1.240884033203125,1.963489055633545,9.605908393859863,-0.204046368598938
1788093357241947100,1.250947021484375,1.9822276830673218,9.601950645446777,-0.20904161036014557
1788093357252010200,1.26101025390625,2.0049543380737305,9.59708309173584,-0.21574616432189941
1788093357262073300,1.2710732421875,2.000596284866333,9.597853660583496,-0.22186903655529022
1788093357272136400,1.281136474609375,1.9770188331604004,9.60255241394043,-0.22971145808696747
1788093357282199600,1.291199462890625,1.957826852798462,9.606285095214844,-0.2379169911146164
1788093357292262700,1.3012626953125,1.9684500694274902,9.603878021240234,-0.24721641838550568
1788093357302326000,1.311325927734375,1.9855231046676636,9.600229263305664,-0.2523670792579651
1788093357312389000,1.32138916015625,2.004880666732788,9.595972061157227,-0.2610980272293091
1788093357322452200,1.3314521484375,2.0101568698883057,9.594738960266113,-0.26575425267219543
1788093357332515300,1.341515380859375,2.0022711753845215,9.596158027648926,-0.2739565968513489
1788093357342578400,1.351578369140625,2.003776788711548,9.595527648925781,-0.28478914499282837
1788093357352641500,1.3616416015625,2.007840871810913,9.59436321258545,-0.2952461540699005
1788093357362704600,1.37170458984375,2.0089898109436035,9.593798637390137,-0.30557647347450256
1788093357372767700,1.381767822265625,1.9958072900772095,9.596210479736328,-0.3160306513309479
1788093357382830800,1.391830810546875,1.9859130382537842,9.597860336303711,-0.32802245020866394
1788093357392894000,1.40189404296875,1.9989336729049683,9.594688415527344,-0.3414824604988098
1788093357402957000,1.41195703125,2.022608995437622,9.589208602905273,-0.3556869328022003
1788093357413020200,1.422020263671875,2.0457050800323486,9.58338737487793,-0.37971752882003784
1788093357423083300,1.432083251953125,2.0477166175842285,9.582128524780273,-0.4000779688358307
1788093357433146400,1.442146484375,2.030979633331299,9.584891319274902,-0.41874903440475464
1788093357443209500,1.45220947265625,2.025344133377075,9.586064338684082,-0.41920292377471924
1788093357453272600,1.4622724609375,2.041226863861084,9.582849502563477,-0.4156590402126312
1788093357463335700,1.472335693359375,2.070066213607788,9.576554298400879,-0.41810327768325806
1788093357473398800,1.482398681640625,2.078479051589966,9.574252128601074,-0.4289552867412567
1788093357483462000,1.4924619140625,2.0585384368896484,9.578531265258789,-0.4295852780342102
1788093357493525000,1.50252490234375,2.0262184143066406,9.585870742797852,-0.4194112718105316
1788093357503588000,1.512588134765625,2.012404441833496,9.589240074157715,-0.4087570309638977
1788093357513651200,1.522651123046875,2.0150539875030518,9.588906288146973,-0.4034965932369232
1788093357523714600,1.532714599609375,2.0274250507354736,9.586477279663086,-0.39924126863479614
1788093357533777700,1.542777587890625,2.035325765609741,9.584882736206055,-0.39732590317726135
1788093357543840800,1.5528408203125,2.0194482803344727,9.588399887084961,-0.3934515118598938
1788093357553903900,1.56290380859375,2.0196778774261475,9.58853530883789,-0.388933390378952
1788093357563966700,1.572966796875,2.0143966674804688,9.589774131774902,-0.38580504059791565
1788093357574030000,1.583030029296875,2.009361505508423,9.591224670410156,-0.37582874298095703
1788093357584093200,1.59309326171875,1.9904063940048218,9.595452308654785,-0.36870551109313965
1788093357594156300,1.60315625,1.9673823118209839,9.600642204284668,-0.3570186495780945
1788093357604219400,1.613219482421875,1.9641658067703247,9.601981163024902,-0.338233083486557
1788093357614282500,1.623282470703125,1.9755231142044067,9.600520133972168,-0.3126072287559509
1788093357624345600,1.633345703125,1.9912638664245605,9.597922325134277,-0.2917775809764862
1788093357634408700,1.64340869140625,1.991513729095459,9.59843635559082,-0.2725158631801605
1788093357644471800,1.653471923828125,1.9866663217544556,9.599517822265625,-0.2698276937007904
1788093357654535000,1.663534912109375,1.993123173713684,9.59808349609375,-0.27318519353866577
1788093357664598000,1.673597900390625,2.0160975456237793,9.592923164367676,-0.2856062650680542
1788093357674661000,1.6836611328125,2.0452702045440674,9.586273193359375,-0.30101773142814636
1788093357684724200,1.69372412109375,2.0505642890930176,9.584599494934082,-0.31783527135849
1788093357694787300,1.703787353515625,2.029496431350708,9.588698387145996,-0.3292412757873535
1788093357704850400,1.713850341796875,2.0007681846618652,9.594648361206055,-0.3317122757434845
1788093357714913500,1.72391357421875,1.9972307682037354,9.595680236816406,-0.3230489194393158
1788093357724976600,1.7339765625,2.0083422660827637,9.593832969665527,-0.3087500035762787
1788093357735039700,1.744039794921875,2.0257344245910645,9.590924263000488,-0.28454431891441345
1788093357745103000,1.75410302734375,2.0281639099121094,9.591266632080078,-0.25403040647506714
1788093357755166000,1.764166015625,2.023394823074341,9.592977523803711,-0.2259514480829239
1788093357765229000,1.77422900390625,2.02152943611145,9.594058990478516,-0.19454325735569
1788093357775292200,1.784292236328125,2.025116443634033,9.59382438659668,-0.16679319739341736
1788093357785355300,1.794355224609375,2.0262229442596436,9.593966484069824,-0.14350049197673798
1788093357795418600,1.804418701171875,2.0159616470336914,9.596393585205078,-0.12453850358724594
1788093357805481700,1.814481689453125,2.0002782344818115,9.599858283996582,-0.10951906442642212
1788093357815544800,1.824544921875,2.003404378890991,9.599296569824219,-0.1013188287615776
1788093357825608000,1.83460791015625,2.0192110538482666,9.59599494934082,-0.10019685328006744
1788093357835671000,1.844671142578125,2.0401394367218018,9.591501235961914,-0.10636842250823975
1788093357845734100,1.854734130859375,2.0309338569641113,9.593315124511719,-0.11833818256855011
1788093357855797200,1.86479736328125,2.013781785964966,9.596713066101074,-0.13472436368465424
1788093357865860400,1.8748603515625,1.9981880187988281,9.599867820739746,-0.14209985733032227
1788093357875923500,1.88492333984375,2.0099260807037354,9.597346305847168,-0.1467324048280716
1788093357885986600,1.894986572265625,2.039182186126709,9.591163635253906,-0.14735984802246094
1788093357896049700,1.905049560546875,2.057216167449951,9.58728313446045,-0.14917556941509247
1788093357906112800,1.91511279296875,2.041778802871704,9.590532302856445,-0.15239496529102325
1788093357916176000,1.92517578125,2.007323980331421,9.597756385803223,-0.1552174836397171
1788093357926239000,1.935239013671875,1.987397313117981,9.601888656616211,-0.1561862677335739
1788093357936302000,1.945302001953125,1.9978044033050537,9.599701881408691,-0.15773336589336395
1788093357946365200,1.955365234375,2.008103132247925,9.597533226013184,-0.15894655883312225
1788093357956428300,1.96542822265625,2.0163135528564453,9.595678329467773,-0.16684368252754211
1788093357966491400,1.975491455078125,2.014498710632324,9.595927238464355,-0.1742738038301468
1788093357976554500,1.985554443359375,2.008127450942993,9.597006797790527,-0.18778331577777863
1788093357986617600,1.99561767578125,2.0119848251342773,9.595873832702637,-0.20370128750801086
1788093357996680700,2.0056806640625,2.0127906799316406,9.59537124633789,-0.21888211369514465
1788093358006743800,2.015743896484375,2.004997730255127,9.596702575683594,-0.23166663944721222
1788093358016807200,2.02580712890625,1.9849421977996826,9.600625038146973,-0.24167853593826294
1788093358026870000,2.0358701171875,1.9782121181488037,9.601823806762695,-0.24905551970005035
1788093358036933000,2.04593310546875,1.992784857749939,9.598657608032227,-0.25485357642173767
1788093358046996200,2.055996337890625,2.0194766521453857,9.592845916748047,-0.26343339681625366
1788093358057059300,2.066059326171875,2.023590564727783,9.591763496398926,-0.2711765766143799
1788093358067122700,2.076122802734375,2.0192763805389404,9.592273712158203,-0.2849861979484558
1788093358077185800,2.086185791015625,2.0145866870880127,9.592982292175293,-0.2941419780254364
1788093358087249000,2.096248779296875,2.025134801864624,9.590426445007324,-0.3048473000526428
1788093358097312000,2.10631201171875,2.0443689823150635,9.585969924926758,-0.3164186477661133
1788093358107374800,2.116374755859375,2.052320718765259,9.583784103393555,-0.3308303952217102
1788093358117438200,2.126438232421875,2.0339763164520264,9.587225914001465,-0.3441530764102936
1788093358127501300,2.136501220703125,2.0066208839416504,9.592560768127441,-0.35583797097206116
1788093358137564400,2.146564453125,1.9976587295532227,9.594149589538574,-0.36337220668792725
1788093358147627500,2.15662744140625,2.0135653018951416,9.590509414672852,-0.37158069014549255
1788093358157690600,2.166690673828125,2.0293796062469482,9.587159156799316,-0.3720015585422516
1788093358167753700,2.176753662109375,2.0379421710968018,9.585287094116211,-0.37342944741249084
1788093358177816800,2.18681689453125,2.0416040420532227,9.584529876708984,-0.3728673756122589
1788093358187880000,2.1968798828125,2.0410311222076416,9.58460521697998,-0.3740438222885132
1788093358197943000,2.206943115234375,2.0475451946258545,9.582924842834473,-0.38145700097084045
1788093358208006100,2.217006103515625,2.0502564907073975,9.581782341003418,-0.3953167200088501
1788093358218069200,2.2270693359375,2.0439412593841553,9.582600593566895,-0.4079993963241577
1788093358228132400,2.23713232421875,2.030238151550293,9.585226058959961,-0.4146686792373657
1788093358238195500,2.247195556640625,2.0306594371795654,9.585171699523926,-0.41387081146240234
1788093358248258600,2.257258544921875,2.048161506652832,9.581543922424316,-0.4116098880767822
1788093358258321700,2.26732177734375,2.0701193809509277,9.576791763305664,-0.4123836159706116
1788093358268384800,2.277384765625,2.0725133419036865,9.575845718383789,-0.4221774935722351
1788093358278447900,2.28744775390625,2.0664963722229004,9.57687759399414,-0.42824214696884155
1788093358288511000,2.297510986328125,2.0581135749816895,9.578482627868652,-0.4327077269554138
1788093358298574000,2.307573974609375,2.065782070159912,9.57681655883789,-0.4330422580242157
1788093358308637200,2.31763720703125,2.0842294692993164,9.57241439819336,-0.44187724590301514
1788093358318700300,2.3277001953125,2.0931034088134766,9.570000648498535,-0.45210033655166626
1788093358328763400,2.337763427734375,2.07893967628479,9.573033332824707,-0.4532407820224762
1788093358338826800,2.34782666015625,2.0559515953063965,9.578496932983398,-0.44253429770469666
1788093358348889600,2.3578896484375,2.0414865016937256,9.5822172164917,-0.4287584125995636
1788093358358952700,2.36795263671875,2.0435874462127686,9.5820951461792,-0.4214323163032532
1788093358369015800,2.378015869140625,2.045224666595459,9.581934928894043,-0.41710856556892395
1788093358379079000,2.388078857421875,2.0425822734832764,9.582642555236816,-0.41375643014907837
1788093358389142300,2.398142333984375,2.0380618572235107,9.583771705627441,-0.4098726212978363
1788093358399205400,2.408205322265625,2.034778594970703,9.584522247314453,-0.40866783261299133
1788093358409268500,2.4182685546875,2.03434419631958,9.584562301635742,-0.40987932682037354
1788093358419331300,2.428331298828125,2.031853437423706,9.585012435913086,-0.41170889139175415
1788093358429394400,2.43839453125,2.012364625930786,9.589279174804688,-0.4080439507961273
1788093358439457800,2.448457763671875,1.9915502071380615,9.593870162963867,-0.4022083878517151
1788093358449521000,2.45852099609375,1.9881229400634766,9.595043182373047,-0.3910279870033264
1788093358459584000,2.468583984375,2.0002501010894775,9.593015670776367,-0.3787171542644501
1788093358469647000,2.478647216796875,2.012995481491089,9.590505599975586,-0.37474295496940613
1788093358479710200,2.488710205078125,2.003218412399292,9.592541694641113,-0.375042587518692
1788093358489773300,2.498773193359375,1.9901496171951294,9.594762802124023,-0.38756436109542847
1788093358499836400,2.50883642578125,1.9916332960128784,9.593878746032715,-0.40159356594085693
1788093358509899500,2.5188994140625,2.0140395164489746,9.588371276855469,-0.4209001660346985
1788093358519962600,2.528962646484375,2.0417046546936035,9.581533432006836,-0.44276395440101624
1788093358530025700,2.539025634765625,2.04827880859375,9.579410552978516,-0.4580654203891754
1788093358540088800,2.5490888671875,2.0290017127990723,9.58353042602539,-0.4577043652534485
1788093358550152000,2.55915185546875,2.005964756011963,9.589046478271484,-0.44348961114883423
1788093358560215000,2.569215087890625,2.0051348209381104,9.590054512023926,-0.425056129693985
1788093358570278100,2.579278076171875,2.0246474742889404,9.586478233337402,-0.4130604565143585
1788093358580341200,2.58934130859375,2.042064666748047,9.583210945129395,-0.40300697088241577
1788093358590404400,2.599404296875,2.047170639038086,9.582484245300293,-0.39430755376815796
1788093358600467500,2.609467529296875,2.046617269515991,9.583024978637695,-0.3839079737663269
1788093358610530600,2.619530517578125,2.045731544494629,9.583582878112793,-0.3745691776275635
1788093358620593700,2.62959375,2.049553871154785,9.582902908325195,-0.37105149030685425
1788093358630656800,2.63965673828125,2.047579526901245,9.583396911621094,-0.36920231580734253
1788093358640720000,2.649719970703125,2.0331802368164062,9.586650848388672,-0.3642805218696594
1788093358650783000,2.659782958984375,2.0140480995178223,9.591073036193848,-0.35399940609931946
1788093358660846000,2.66984619140625,2.017143726348877,9.590970993041992,-0.3387938141822815
1788093358670909200,2.6799091796875,2.0347704887390137,9.587935447692871,-0.31874075531959534
1788093358680972300,2.68997216796875,2.0539937019348145,9.584564208984375,-0.29600629210472107
1788093358691035400,2.700035400390625,2.0428614616394043,9.587574005126953,-0.27480894327163696
1788093358701098500,2.710098388671875,2.02951717376709,9.59093189239502,-0.2558791935443878
1788093358711161600,2.72016162109375,2.0226054191589355,9.593021392822266,-0.23107223212718964
1788093358721224700,2.730224609375,2.0419116020202637,9.589417457580566,-0.2099151313304901
1788093358731287800,2.740287841796875,2.068671464920044,9.584040641784668,-0.19272583723068237
1788093358741351000,2.750350830078125,2.0802597999572754,9.581677436828613,-0.18541070818901062
1788093358751414000,2.7604140625,2.063331365585327,9.58537483215332,-0.18342512845993042
1788093358761477400,2.770477294921875,2.0369465351104736,9.590971946716309,-0.18570762872695923
1788093358771540500,2.78054052734375,2.0307345390319824,9.592314720153809,-0.18437936902046204
1788093358781603300,2.790603271484375,2.042400598526001,9.58981704711914,-0.18548615276813507
1788093358791666400,2.80066650390625,2.051203489303589,9.588067054748535,-0.17864273488521576
1788093358801729500,2.8107294921875,2.0459177494049072,9.589357376098633,-0.16981472074985504
1788093358811793000,2.82079296875,2.035438060760498,9.591764450073242,-0.15945392847061157
1788093358821856000,2.83085595703125,2.0241646766662598,9.594344139099121,-0.1472802609205246
1788093358831919000,2.840919189453125,2.0184853076934814,9.595645904541016,-0.14034026861190796
1788093358841982200,2.850982177734375,2.0122480392456055,9.596994400024414,-0.13767118752002716
1788093358852045000,2.861045166015625,2.0043389797210693,9.598605155944824,-0.14077481627464294
1788093358862108400,2.8711083984375,1.9984288215637207,9.599743843078613,-0.146959125995636
1788093358872171500,2.881171630859375,2.0089542865753174,9.597406387329102,-0.15576960146427155
1788093358882234600,2.891234619140625,2.021700859069824,9.59460163116455,-0.16346852481365204
1788093358892297700,2.901297607421875,2.01511287689209,9.595606803894043,-0.18453001976013184
1788093358902360800,2.91136083984375,1.9935834407806396,9.599623680114746,-0.20795628428459167
1788093358912424000,2.921423828125,1.97333562374115,9.60327434539795,-0.23117201030254364
1788093358922487000,2.931487060546875,1.9779837131500244,9.601777076721191,-0.25266435742378235
1788093358932550100,2.941550048828125,1.9969751834869385,9.597372055053711,-0.27003929018974304
1788093358942613200,2.95161328125,2.0110363960266113,9.594023704528809,-0.2843036353588104
1788093358952676400,2.96167626953125,1.9984331130981445,9.596328735351562,-0.2952006459236145
1788093358962739500,2.971739501953125,1.9751733541488647,9.600993156433105,-0.2999962568283081
1788093358972802600,2.981802490234375,1.9609373807907104,9.604048728942871,-0.295575350522995
1788093358982865700,2.99186572265625,1.9750396013259888,9.601356506347656,-0.2890336513519287
1788093358992928800,3.0019287109375,1.9866303205490112,9.599393844604492,-0.2744600474834442
1788093359002991900,3.011991943359375,1.9945459365844727,9.598066329956055,-0.2632564306259155
1788093359013055000,3.022054931640625,2.0012998580932617,9.596978187561035,-0.25136125087738037
1788093359023118000,3.0321181640625,2.0039610862731934,9.59660530090332,-0.24429307878017426
1788093359033181200,3.04218115234375,2.006223678588867,9.596062660217285,-0.24704208970069885
1788093359043244300,3.052244384765625,1.9976853132247925,9.597710609436035,-0.252166748046875
1788093359053307400,3.062307373046875,1.98261559009552,9.600686073303223,-0.2577747106552124
1788093359063370500,3.07237060546875,1.9660358428955078,9.603961944580078,-0.2626899480819702
1788093359073433600,3.08243359375,1.974532961845398,9.602120399475098,-0.2662680745124817
1788093359083496700,3.09249658203125,1.9954752922058105,9.597832679748535,-0.26471033692359924
1788093359093559800,3.102559814453125,2.0168166160583496,9.59330940246582,-0.26690784096717834
1788093359103623000,3.112622802734375,2.0074105262756348,9.595296859741211,-0.2663889527320862
1788093359113686000,3.12268603515625,1.9912091493606567,9.59852409362793,-0.2717028558254242
1788093359123749000,3.1327490234375,1.9864197969436646,9.599475860595703,-0.2731148302555084
1788093359133812200,3.142812255859375,2.0034403800964355,9.595756530761719,-0.2794172167778015
1788093359143875300,3.152875244140625,2.0201034545898438,9.591976165771484,-0.2890780568122864
1788093359153938400,3.1629384765625,2.0123543739318848,9.593226432800293,-0.30139222741127014
1788093359164001500,3.17300146484375,1.981986165046692,9.599348068237305,-0.30762866139411926
1788093359174064600,3.183064697265625,1.9522420167922974,9.605447769165039,-0.3074043095111847
1788093359184128000,3.1931279296875,1.9541478157043457,9.605339050292969,-0.29855242371559143
1788093359194191000,3.203191162109375,1.9687726497650146,9.602624893188477,-0.2896864116191864
1788093359204254200,3.213254150390625,1.9863518476486206,9.599425315856934,-0.2753908038139343
1788093359214317000,3.223317138671875,1.9923638105392456,9.598657608032227,-0.2581285834312439
1788093359224380200,3.233380126953125,1.9959304332733154,9.598271369934082,-0.24463550746440887
1788093359234443500,3.243443603515625,1.9952863454818726,9.598653793334961,-0.23466357588768005
1788093359244506600,3.253506591796875,1.9926098585128784,9.59929084777832,-0.23128747940063477
1788093359254569700,3.26356982421875,1.9792115688323975,9.60209846496582,-0.2298441231250763
1788093359264632800,3.2736328125,1.9609172344207764,9.605859756469727,-0.22941957414150238
1788093359274696000,3.283696044921875,1.9494516849517822,9.608261108398438,-0.22663497924804688
1788093359284759000,3.293759033203125,1.9633921384811401,9.605460166931152,-0.22494706511497498
1788093359294822100,3.303822265625,1.9799721240997314,9.602229118347168,-0.21742188930511475
1788093359304885200,3.31388525390625,1.9858494997024536,9.600995063781738,-0.2183333933353424
1788093359314948400,3.3239482421875,1.969609260559082,9.604472160339355,-0.21252839267253876
1788093359325011500,3.334011474609375,1.9549448490142822,9.607529640197754,-0.20964162051677704
1788093359335074600,3.344074462890625,1.9625575542449951,9.60608959197998,-0.20445698499679565
1788093359345137700,3.3541376953125,1.9842981100082397,9.601617813110352,-0.20465585589408875
1788093359355200800,3.36420068359375,1.9972524642944336,9.598828315734863,-0.20947585999965668
1788093359365264000,3.374263916015625,1.9803640842437744,9.602160453796387,-0.21691714227199554
1788093359375327000,3.384326904296875,1.949790120124817,9.608251571655273,-0.2240842580795288
1788093359385390000,3.39439013671875,1.9289747476577759,9.612385749816895,-0.2269015610218048
1788093359395453200,3.404453125,1.9396796226501465,9.610108375549316,-0.23207786679267883
1788093359405516300,3.414516357421875,1.9487009048461914,9.608261108398438,-0.23297171294689178
1788093359415579400,3.424579345703125,1.9589316844940186,9.606103897094727,-0.23612332344055176
1788093359425642500,3.434642578125,1.9689819812774658,9.604117393493652,-0.2332860678434372
1788093359435705600,3.44470556640625,1.9750337600708008,9.602961540222168,-0.22968356311321259
1788093359445768700,3.454768798828125,1.979894995689392,9.601983070373535,-0.22875462472438812
1788093359455832000,3.46483203125,1.9735788106918335,9.603405952453613,-0.22350601851940155
1788093359465895000,3.47489501953125,1.9600907564163208,9.606317520141602,-0.21699181199073792
1788093359475958000,3.4849580078125,1.9439852237701416,9.609715461730957,-0.21138347685337067
1788093359486021000,3.495021240234375,1.9515719413757324,9.608260154724121,-0.20757704973220825
1788093359496084200,3.505084228515625,1.96708083152771,9.605192184448242,-0.20313648879528046
1788093359506147600,3.515147705078125,1.9845659732818604,9.6014404296875,-0.21032147109508514
1788093359516210700,3.525210693359375,1.9796780347824097,9.602371215820312,-0.21382656693458557
1788093359526273800,3.535273681640625,1.9718297719955444,9.603797912597656,-0.22215178608894348
1788093359536337000,3.5453369140625,1.9775407314300537,9.60255241394043,-0.22520135343074799
1788093359546399700,3.555399658203125,1.9979004859924316,9.598183631896973,-0.2316054105758667
1788093359556463000,3.565463134765625,2.0095925331115723,9.595553398132324,-0.2393273264169693
1788093359566526200,3.575526123046875,1.9922701120376587,9.598923683166504,-0.24878327548503876
1788093359576589300,3.58558935546875,1.9529898166656494,9.60687255859375,-0.2534061372280121
1788093359586652400,3.59565234375,1.9187915325164795,9.613798141479492,-0.2519855797290802
1788093359596715500,3.605715576171875,1.9235165119171143,9.613036155700684,-0.24496249854564667
1788093359606778600,3.615778564453125,1.9333877563476562,9.611285209655762,-0.23579375445842743
1788093359616841700,3.625841796875,1.9551061391830444,9.607122421264648,-0.226127028465271
1788093359626904800,3.63590478515625,1.97135591506958,9.604166984558105,-0.21000714600086212
1788093359636968000,3.645968017578125,1.9865602254867554,9.601250648498535,-0.1998778134584427
1788093359647031000,3.656031005859375,1.992872953414917,9.600053787231445,-0.19450148940086365
1788093359657094100,3.66609423828125,1.9854656457901,9.6016263961792,-0.19257724285125732
1788093359667157200,3.6761572265625,1.9670300483703613,9.605459213256836,-0.19065313041210175
1788093359677220400,3.686220458984375,1.9493088722229004,9.609074592590332,-0.1904553472995758
1788093359697346600,3.7063466796875,1.9715430736541748,9.604659080505371,-0.1841743439435959
1788093359707409700,3.71640966796875,1.996010422706604,9.599669456481934,-0.18074408173561096
1788093359717472800,3.72647265625,1.9865082502365112,9.601737022399902,-0.1755172461271286
1788093359727536000,3.7365361328125,1.9746371507644653,9.6041259765625,-0.17878209054470062
1788093359737599000,3.746598876953125,1.9702019691467285,9.605094909667969,-0.1755598783493042
1788093359747662000,3.756662109375,1.9878907203674316,9.601289749145508,-0.1841491460800171
1788093359757725200,3.76672509765625,2.0058281421661377,9.597332000732422,-0.19558978080749512
1788093359767788300,3.776788330078125,2.005448818206787,9.597119331359863,-0.20943400263786316
1788093359777851600,3.7868515625,1.9807475805282593,9.602056503295898,-0.21804846823215485
1788093359787914800,3.796914794921875,1.9555145502090454,9.607121467590332,-0.22265265882015228
1788093359797977900,3.806977783203125,1.9576072692871094,9.606740951538086,-0.22065508365631104
1788093359808041000,3.817041015625,1.9670031070709229,9.604866981506348,-0.21869663894176483
1788093359818104000,3.82710400390625,1.98261559009552,9.60169506072998,-0.21697811782360077
1788093359828167200,3.837167236328125,1.9919860363006592,9.599910736083984,-0.20999819040298462
1788093359838230300,3.847230224609375,1.9997811317443848,9.598270416259766,-0.21091380715370178
1788093359848293400,3.85729345703125,2.004061698913574,9.597243309020996,-0.21689853072166443
1788093359858356500,3.8673564453125,1.996221661567688,9.598725318908691,-0.22350212931632996
1788093359868419600,3.877419677734375,1.979631781578064,9.60202407836914,-0.22930793464183807
1788093359878482700,3.887482666015625,1.9641236066818237,9.605123519897461,-0.2328173965215683
1788093359888545800,3.8975458984375,1.9665745496749878,9.604626655578613,-0.2326594442129135
1788093359898609000,3.90760888671875,1.9872199296951294,9.600424766540527,-0.23063650727272034
1788093359908672000,3.917672119140625,2.0077004432678223,9.596213340759277,-0.22849512100219727
1788093359918735000,3.927735107421875,1.9973081350326538,9.598426818847656,-0.22659219801425934
1788093359928798200,3.937798095703125,1.9806954860687256,9.601807594299316,-0.22916065156459808
1788093359938861300,3.947861328125,1.9758470058441162,9.602882385253906,-0.2259603589773178
1788093359948924700,3.957924560546875,1.994865894317627,9.598844528198242,-0.2303740382194519
1788093359958987800,3.96798779296875,2.018625497817993,9.593729972839355,-0.23637010157108307
1788093359969051000,3.97805078125,2.0188822746276855,9.593414306640625,-0.24680519104003906
1788093359979114000,3.988114013671875,1.993452548980713,9.598536491394043,-0.2542451322078705
1788093359989177000,3.998177001953125,1.9640135765075684,9.604475975036621,-0.25896820425987244
1788093359999240200,4.008240234375,1.9625370502471924,9.6047945022583,-0.2583674192428589
1788093360009303300,4.01830322265625,1.9767546653747559,9.601816177368164,-0.2607143223285675
1788093360019366400,4.028366455078125,1.9925646781921387,9.59860897064209,-0.2583737373352051
1788093360029429500,4.038429443359375,1.996630072593689,9.59788990020752,-0.25372377038002014
1788093360039492600,4.04849267578125,1.9989181756973267,9.597424507141113,-0.2532981336116791
1788093360049555700,4.0585556640625,1.9968643188476562,9.597875595092773,-0.25238606333732605
1788093360059618800,4.068618896484375,1.9896018505096436,9.59928035736084,-0.2563219666481018
1788093360069682000,4.078681884765625,1.976287603378296,9.601982116699219,-0.25808626413345337
1788093360079745300,4.088745361328125,1.9596434831619263,9.605398178100586,-0.25788596272468567
1788093360089808400,4.098808349609375,1.9549014568328857,9.606450080871582,-0.2546846568584442
1788093360099871500,4.10887158203125,1.9722988605499268,9.602987289428711,-0.25112760066986084
1788093360109934600,4.1189345703125,1.9922415018081665,9.599135398864746,-0.240766242146492
1788093360119997700,4.128997802734375,1.987707257270813,9.600118637084961,-0.2390642762184143
1788093360130060800,4.139060791015625,1.9728602170944214,9.603242874145508,-0.23648729920387268
1788093360140124000,4.1491240234375,1.9605700969696045,9.605875968933105,-0.2317555844783783
1788093360150187300,4.159187255859375,1.977294683456421,9.60238265991211,-0.23441070318222046
1788093360160250400,4.16925048828125,2.0007100105285645,9.597382545471191,-0.2403765767812729
1788093360170313500,4.1793134765625,2.0084104537963867,9.595488548278809,-0.2515619099140167
1788093360180376600,4.18937646484375,1.985787034034729,9.599928855895996,-0.26154524087905884
1788093360190439700,4.199439697265625,1.9574683904647827,9.605496406555176,-0.2704188823699951
1788093360200502800,4.209502685546875,1.9483931064605713,9.607365608215332,-0.26959601044654846
1788093360210566000,4.21956591796875,1.963303804397583,9.604228019714355,-0.273213654756546
1788093360220629200,4.229629150390625,1.9783275127410889,9.601263046264648,-0.26899805665016174
1788093360230692400,4.2396923828125,1.9864332675933838,9.599699974060059,-0.26500651240348816
1788093360240755500,4.24975537109375,1.9929620027542114,9.598383903503418,-0.2636410892009735
1788093360250818600,4.259818603515625,1.9954828023910522,9.597867012023926,-0.263426810503006
1788093360260881700,4.269881591796875,1.989908218383789,9.598899841308594,-0.2678998112678528
1788093360270945000,4.279945068359375,1.9767224788665771,9.601493835449219,-0.2725375294685364
1788093360281008000,4.290008056640625,1.9628589153289795,9.60432243347168,-0.2730664014816284
1788093360291071200,4.3000712890625,1.9599411487579346,9.605000495910645,-0.2701432704925537
1788093360301134300,4.31013427734375,1.9809504747390747,9.600802421569824,-0.26608771085739136
1788093360311197400,4.320197509765625,2.0024070739746094,9.596638679504395,-0.2554951310157776
1788093360321260800,4.3302607421875,2.000131845474243,9.597187995910645,-0.2526589632034302
1788093360371576600,4.38057666015625,2.0169222354888916,9.593423843383789,-0.26195576786994934
1788093360381639700,4.3906396484375,1.9958258867263794,9.597646713256836,-0.2687837779521942
1788093360391702800,4.400702880859375,1.9668201208114624,9.603561401367188,-0.2713039815425873
1788093360401766000,4.410765869140625,1.9573875665664673,9.605627059936523,-0.26634785532951355
1788093360479033600,4.48803369140625,1.836899995803833,9.62908935546875,-0.2771700620651245
1788093360489099800,4.498099853515625,1.825041651725769,9.631315231323242,-0.2781606912612915
1788093360499188200,4.508188232421875,1.8372746706008911,9.629026412963867,-0.27684497833251953
1788093360519338800,4.5283388671875,1.8745924234390259,9.621970176696777,-0.2719660997390747
1788093360529552600,4.538552734375,1.8513922691345215,9.62660026550293,-0.2670161724090576
1788093360539766500,4.5487666015625,1.8349018096923828,9.629788398742676,-0.26589006185531616
1788093360549980400,4.55898046875,1.8390341997146606,9.62923526763916,-0.2572202682495117
1788093360560244500,4.569244384765625,1.8678771257400513,9.623764991760254,-0.25408127903938293
1788093360580722700,4.58972265625,1.878382921218872,9.621546745300293,-0.2605893909931183
1788093360590922800,4.5999228515625,1.8483492136001587,9.627301216125488,-0.26279792189598083
1788093360601052700,4.610052734375,1.8287853002548218,9.631013870239258,-0.26362764835357666
1788093360611115800,4.62011572265625,1.8380560874938965,9.629366874694824,-0.2592819929122925
1788093360621204200,4.630204345703125,1.8594752550125122,9.62520694732666,-0.2610016167163849
1788093360641355000,4.65035498046875,1.8664840459823608,9.624122619628906,-0.250795841217041
1788093360651594000,4.660593994140625,1.863677978515625,9.624703407287598,-0.24935193359851837
1788093360661807900,4.670807861328125,1.8616571426391602,9.625129699707031,-0.24798205494880676
1788093360672072000,4.681072021484375,1.8604559898376465,9.625332832336426,-0.249101459980011
1788093360682260700,4.6912607421875,1.8473093509674072,9.627889633178711,-0.24816402792930603
1788093360702738700,4.71173876953125,1.8279330730438232,9.631874084472656,-0.2367601841688156
1788093360713002800,4.722002685546875,1.8531235456466675,9.627211570739746,-0.23050379753112793
1788093360723216600,4.732216552734375,1.8703303337097168,9.624138832092285,-0.21957536041736603
1788093360733229000,4.74222900390625,1.8769481182098389,9.622847557067871,-0.21969038248062134
1788093360743317000,4.75231689453125,1.8558093309402466,9.627022743225098,-0.21632887423038483
1788093360753531000,4.76253076171875,1.8487040996551514,9.628355979919434,-0.21784231066703796
1788093360763795200,4.772795166015625,1.8656734228134155,9.625081062316895,-0.21786373853683472
1788093360784273200,4.793273193359375,1.9092562198638916,9.616174697875977,-0.2330443263053894
1788093360794487000,4.803487060546875,1.8880618810653687,9.620131492614746,-0.24223807454109192
1788093360804701000,4.813700927734375,1.8569389581680298,9.626119613647461,-0.24493281543254852
1788093360814892000,4.82389208984375,1.8463002443313599,9.628192901611328,-0.2438475489616394
1788093360824959200,4.833959228515625,1.8735867738723755,9.62299919128418,-0.2407234013080597
1788093360845085700,4.854085693359375,1.9077969789505005,9.616403579711914,-0.23556414246559143
1788093360855149000,4.864149169921875,1.9098827838897705,9.61618423461914,-0.22746776044368744
1788093360865312800,4.874312744140625,1.9069963693618774,9.616820335388184,-0.2247726023197174
1788093360875425800,4.88442578125,1.9041353464126587,9.617361068725586,-0.22586576640605927
1788093360885438200,4.894438232421875,1.893419861793518,9.619382858276367,-0.2298228144645691
1788093360895652000,4.904652099609375,1.8746799230575562,9.622937202453613,-0.23458358645439148
1788093360905916200,4.914916259765625,1.8607900142669678,9.62546157836914,-0.24155783653259277
1788093360916180500,4.925180419921875,1.874933123588562,9.622488975524902,-0.2504577040672302
1788093360926394400,4.935394287109375,1.9092086553573608,9.615497589111328,-0.25984179973602295
1788093360936608300,4.945608154296875,1.9292216300964355,9.611268043518066,-0.2683399021625519
1788093360946864000,4.955864013671875,1.920094609260559,9.612590789794922,-0.2858366370201111
1788093360957038800,4.966038818359375,1.8925820589065552,9.61782169342041,-0.2933306097984314
1788093360977341200,4.986341064453125,1.896484136581421,9.616846084594727,-0.30003100633621216
1788093360987303200,4.99630322265625,1.9253119230270386,9.611138343811035,-0.29932379722595215
1788093360997467000,5.006466796875,1.9313281774520874,9.609878540039062,-0.3009791970252991
1788093361007680800,5.0166806640625,1.9012893438339233,9.615974426269531,-0.29752886295318604
1788093361017894700,5.026894775390625,1.867147445678711,9.622806549072266,-0.2928197681903839
1788093361028158700,5.03715869140625,1.8596903085708618,9.624574661254883,-0.28195178508758545
1788093361048636700,5.05763671875,1.9038792848587036,9.616045951843262,-0.2779896855354309
1788093361058884900,5.067884765625,1.9159948825836182,9.613239288330078,-0.2914990186691284
1788093361068993000,5.077992919921875,1.9187026023864746,9.612407684326172,-0.3010013699531555
1788093361079106600,5.0881064453125,1.9160350561141968,9.612452507019043,-0.31613877415657043
1788093361089371000,5.098370849609375,1.9151287078857422,9.612126350402832,-0.33120203018188477
1788093361099584500,5.10858447265625,1.9036520719528198,9.61429500579834,-0.3344220817089081
1788093361119911700,5.12891162109375,1.8717615604400635,9.621047973632812,-0.3198723793029785
1788093361130100500,5.1391005859375,1.889512538909912,9.618014335632324,-0.30646994709968567
1788093361140238800,5.14923876953125,1.9213569164276123,9.612140655517578,-0.29244497418403625
1788093361150352100,5.15935205078125,1.94005286693573,9.6087007522583,-0.28187692165374756
1788093361170830000,5.179830078125,1.893644094467163,9.618175506591797,-0.2742350697517395
1788093361180946700,5.18994677734375,1.8772287368774414,9.621522903442383,-0.2696036100387573
1788093361191160600,5.20016064453125,1.8997803926467896,9.617158889770508,-0.26734060049057007
1788093361201223400,5.210223388671875,1.9359380006790161,9.609949111938477,-0.26718711853027344
1788093361211286300,5.220286376953125,1.945030927658081,9.607964515686035,-0.2725369334220886
1788093361221500000,5.2305,1.9111183881759644,9.614664077758789,-0.2761576473712921
1788093361231764200,5.24076416015625,1.8746548891067505,9.621842384338379,-0.2760413885116577
1788093361252242200,5.2612421875,1.899137020111084,9.617146492004395,-0.2723219096660614
1788093361262431000,5.271430908203125,1.919488787651062,9.613022804260254,-0.2752375304698944
1788093361272684500,5.2816845703125,1.9347126483917236,9.609705924987793,-0.2843155860900879
1788093361282837500,5.29183740234375,1.9327648878097534,9.609870910644531,-0.29184725880622864
1788093361302964000,5.3119638671875,1.9305015802383423,9.609257698059082,-0.3251485526561737
1788093361313027300,5.32202734375,1.9313651323318481,9.608656883239746,-0.3375708758831024
1788093361323241200,5.3322412109375,1.9214750528335571,9.61065673828125,-0.33705443143844604
1788093361333253600,5.342253662109375,1.9122662544250488,9.61286735534668,-0.32618772983551025
1788093361343366700,5.35236669921875,1.9206043481826782,9.611656188964844,-0.31261759996414185
1788093361353606000,5.36260595703125,1.948866367340088,9.606392860412598,-0.2991902828216553
1788093361363870000,5.372869873046875,1.960633635520935,9.604426383972168,-0.2851560711860657
1788093361384348000,5.393347900390625,1.9162871837615967,9.613622665405273,-0.27659812569618225
1788093361394561800,5.403561767578125,1.896916151046753,9.617426872253418,-0.2778491675853729
1788093361404758300,5.41375830078125,1.9068068265914917,9.615591049194336,-0.2736269533634186
1788093361414918400,5.42391845703125,1.9407614469528198,9.608709335327148,-0.27667537331581116
1788093361425006600,5.434006591796875,1.9594025611877441,9.604694366455078,-0.28457581996917725
1788093361445157400,5.454157470703125,1.893844723701477,9.617368698120117,-0.2999356687068939
1788093361455396400,5.464396240234375,1.8778737783432007,9.620427131652832,-0.30227014422416687
1788093361465660400,5.474660400390625,1.8960113525390625,9.616726875305176,-0.30673277378082275
1788093361475874300,5.484874267578125,1.9193364381790161,9.611692428588867,-0.31920063495635986
1788093361486138600,5.495138671875,1.9277721643447876,9.60973072052002,-0.32735031843185425
1788093361496352500,5.5053525390625,1.9216809272766113,9.610536575317383,-0.33928582072257996
1788093361516809500,5.5258095703125,1.908570647239685,9.612357139587402,-0.3610363006591797
1788093361526872600,5.53587255859375,1.910975694656372,9.611616134643555,-0.36795368790626526
1788093361536936000,5.54593603515625,1.900426983833313,9.613641738891602,-0.3696538209915161
1788093361546999600,5.55599951171875,1.879822015762329,9.6178560256958,-0.3653641939163208
1788093361557063000,5.56606298828125,1.8701890707015991,9.61996078491211,-0.35937562584877014
1788093361577365200,5.586365234375,1.9164073467254639,9.611180305480957,-0.3506964445114136
1788093361587327200,5.5963271484375,1.928166389465332,9.60897445678711,-0.3466503918170929
1788093361597490700,5.60649072265625,1.9046976566314697,9.613540649414062,-0.34978029131889343
1788093361607629000,5.616629150390625,1.8702685832977295,9.62024211883545,-0.35129597783088684
1788093361617742300,5.626742431640625,1.854126214981079,9.623510360717773,-0.3473547697067261
1788093361627981300,5.636981201171875,1.8793306350708008,9.618680953979492,-0.34566745162010193
1788093361648484600,5.657484619140625,1.915501356124878,9.611652374267578,-0.3426007330417633
1788093361658748700,5.667748779296875,1.8892784118652344,9.617071151733398,-0.33611002564430237
1788093361668939800,5.677939697265625,1.8599094152450562,9.623278617858887,-0.32193970680236816
1788093361679131000,5.688130859375,1.8551675081253052,9.624892234802246,-0.3003089129924774
1788093361689344800,5.6983447265625,1.8630672693252563,9.624051094055176,-0.2774863839149475
1788093361709520600,5.718520751953125,1.8680810928344727,9.624155044555664,-0.23726944625377655
1788093361719583700,5.728583740234375,1.8598172664642334,9.625954627990723,-0.229065403342247
1788093361729772300,5.738772216796875,1.8639516830444336,9.62552261352539,-0.21304050087928772
1788093361739910700,5.74891064453125,1.8715364933013916,9.624126434326172,-0.20960958302021027
1788093361750024000,5.75902392578125,1.877587914466858,9.622809410095215,-0.215836301445961
1788093361770502000,5.779501953125,1.851712703704834,9.627594947814941,-0.22573745250701904
1788093361780766500,5.789766357421875,1.8398890495300293,9.629730224609375,-0.231272891163826
1788093361790980400,5.79998046875,1.8365153074264526,9.630416870117188,-0.22948749363422394
1788093361801111600,5.810111572265625,1.860957384109497,9.625821113586426,-0.22538167238235474
1788093361811162400,5.820162353515625,1.8850032091140747,9.621139526367188,-0.2254572957754135
1788093361821250600,5.83025048828125,1.8992223739624023,9.618428230285645,-0.2217704802751541
1788093361841401300,5.8504013671875,1.8852169513702393,9.620895385742188,-0.2338770478963852
1788093361851640300,5.860640380859375,1.8490513563156128,9.627949714660645,-0.23234418034553528
1788093361861829000,5.8708291015625,1.8538603782653809,9.627176284790039,-0.22597423195838928
1788093361872093400,5.881093505859375,1.867907166481018,9.624617576599121,-0.2192055732011795
1788093361882307600,5.8913076171875,1.8934462070465088,9.619746208190918,-0.213832825422287
1788093361902785500,5.91178564453125,1.9034364223480225,9.61767578125,-0.2182447761297226
1788093361913050000,5.922050048828125,1.8820356130599976,9.621926307678223,-0.21648608148097992
1788093361923264000,5.932263916015625,1.8777300119400024,9.622788429260254,-0.21555739641189575
1788093361933276400,5.9422763671875,1.8824518918991089,9.62205696105957,-0.20688238739967346
1788093361943389400,5.952389404296875,1.8920570611953735,9.62035846710205,-0.19799287617206573
1788093361953628700,5.962628662109375,1.8964961767196655,9.619285583496094,-0.20746850967407227
1788093361963892700,5.972892822265625,1.887129783630371,9.621126174926758,-0.2075464278459549
1788093361984370700,5.99337060546875,1.8769655227661133,9.62317943572998,-0.20446783304214478
1788093361994609700,6.003609619140625,1.8927785158157349,9.620386123657227,-0.18953685462474823
1788093362004748000,6.013748046875,1.8748325109481812,9.624067306518555,-0.18086788058280945
1788093362014845000,6.023844970703125,1.8646849393844604,9.626255989074707,-0.16888414323329926
1788093362035072800,6.04407275390625,1.8556002378463745,9.628338813781738,-0.1491064429283142
1788093362045136100,6.05413623046875,1.8457460403442383,9.630328178405762,-0.1427328884601593
1788093362055350000,6.06435009765625,1.8384244441986084,9.631972312927246,-0.12526321411132812
1788093362065362200,6.074362060546875,1.8526432514190674,9.629240036010742,-0.1257878988981247
1788093362075475500,6.084475341796875,1.8610824346542358,9.627656936645508,-0.12242722511291504
1788093362085739500,6.094739501953125,1.828118920326233,9.634111404418945,-0.11078785359859467
1788093362095953400,6.104953369140625,1.8117570877075195,9.637418746948242,-0.08992467820644379
1788093362116481800,6.125481689453125,1.8398988246917725,9.632123947143555,-0.08565964549779892
1788093362126670600,6.135670654296875,1.8062626123428345,9.638628005981445,-0.0682416707277298
1788093362136867600,6.14586767578125,1.7942863702774048,9.640976905822754,-0.04990338906645775
1788093362147028200,6.1560283203125,1.8109817504882812,9.637835502624512,-0.05345270782709122
1788093362157091600,6.166091552734375,1.819523811340332,9.636213302612305,-0.05584040284156799
1788093362177218300,6.18621826171875,1.7695411443710327,9.64566421508789,-0.016595508903265
1788093362187281700,6.19628173828125,1.7972016334533691,9.640530586242676,-0.02502729557454586
1788093362197345300,6.20634521484375,1.8196721076965332,9.636297225952148,-0.031262025237083435
1788093362207484000,6.21648388671875,1.781650185585022,9.64344310760498,-0.011104567907750607
1788093362217723100,6.22672314453125,1.7889961004257202,9.642077445983887,0.0142778055742383
1788093362227987200,6.2369873046875,1.8238191604614258,9.635562896728516,0.001395265106111765
1788093362248465700,6.257465576171875,1.7956607341766357,9.640850067138672,-0.0002977756375912577
1788093362258729700,6.267729736328125,1.8046634197235107,9.639165878295898,0.008732681162655354
1788093362268943600,6.277943603515625,1.824022889137268,9.635503768920898,-0.019874529913067818
1788093362279157500,6.288157470703125,1.8450593948364258,9.631393432617188,-0.04897179454565048
1788093362289371400,6.298371337890625,1.7855054140090942,9.642608642578125,-0.04953146353363991
1788093362309547300,6.31854736328125,1.8079954385757446,9.6382474899292,-0.07573077827692032
1788093362319610000,6.328610107421875,1.8513340950012207,9.629772186279297,-0.10214785486459732
1788093362329799000,6.338798828125,1.784018635749817,9.642459869384766,-0.10313138365745544
1788093362339937300,6.348937255859375,1.7949864864349365,9.640402793884277,-0.10512042790651321
1788093362360264400,6.369264404296875,1.8234847784042358,9.634647369384766,-0.13729852437973022
1788093362370528500,6.379528564453125,1.776037335395813,9.6437349319458,-0.12027818709611893
1788093362380793000,6.38979296875,1.7819037437438965,9.64284896850586,-0.10330656915903091
1788093362391007000,6.400007080078125,1.786470890045166,9.641979217529297,-0.10563058406114578
1788093362401139700,6.4101396484375,1.8017613887786865,9.639089584350586,-0.1095157191157341
1788093362411193000,6.420193115234375,1.7623695135116577,9.646626472473145,-0.08402740210294724
1788093362421281300,6.43028125,1.7671700716018677,9.645885467529297,-0.06631863117218018
1788093362441432000,6.45043212890625,1.7705408334732056,9.645322799682617,-0.057574618607759476
1788093362451671000,6.460671142578125,1.7447103261947632,9.650144577026367,-0.03303629532456398
1788093362461885000,6.470885009765625,1.7546616792678833,9.648362159729004,-0.025399139150977135
1788093362472149500,6.4811494140625,1.7790223360061646,9.643884658813477,-0.03063715249300003
1788093362482338300,6.49133837890625,1.7596733570098877,9.647444725036621,-0.027567245066165924
1788093362502816300,6.511816162109375,1.7507028579711914,9.649114608764648,-0.002434317022562027
1788093362513080800,6.522080810546875,1.7921578884124756,9.641499519348145,-0.006812239997088909
1788093362523294700,6.532294677734375,1.7799909114837646,9.643754959106445,-0.002366127446293831
1788093362533307100,6.54230712890625,1.7489069700241089,9.649413108825684,0.022972792387008667
1788093362543420200,6.552420166015625,1.7756699323654175,9.644543647766113,0.012865507043898106
1788093362553659400,6.562659423828125,1.8009308576583862,9.639866828918457,-0.002821960486471653
1788093362563923500,6.57292333984375,1.7672361135482788,9.646098136901855,-0.007056950591504574
1788093362584401400,6.5934013671875,1.7481523752212524,9.64957046508789,-0.0113103361800313
1788093362594665700,6.603665771484375,1.7599928379058838,9.647385597229004,-0.02748408541083336
1788093362604879400,6.61387939453125,1.7400954961776733,9.651008605957031,-0.021827904507517815
1788093362625041700,6.634041748046875,1.7383396625518799,9.651350975036621,0.0002479188551660627
1788093362645344000,6.654343994140625,1.716808557510376,9.655147552490234,0.03286343440413475
1788093362655608600,6.664608642578125,1.7142034769058228,9.65554141998291,0.0490691103041172
1788093362665822500,6.674822509765625,1.7394359111785889,9.65102767944336,0.049200914800167084
1788093362676086500,6.68508642578125,1.7603803873062134,9.647262573242188,0.04216437041759491
1788093362686300400,6.695300537109375,1.7239645719528198,9.653778076171875,0.05386226251721382
1788093362706778400,6.7157783203125,1.7611761093139648,9.647122383117676,0.040858976542949677
1788093362716870400,6.725870361328125,1.7723926305770874,9.645097732543945,0.03316109627485275
1788093362726934300,6.735934326171875,1.7207343578338623,9.654342651367188,0.05573442578315735
1788093362737098000,6.746097900390625,1.7411706447601318,9.65063762664795,0.06247100234031677
1788093362747362600,6.756362548828125,1.7737016677856445,9.644774436950684,0.05197000503540039
1788093362757576400,6.766576416015625,1.7587932348251343,9.647521018981934,0.048787716776132584
1788093362778054700,6.7870546875,1.6999821662902832,9.657912254333496,0.07196221500635147
1788093362788268300,6.797268310546875,1.715295433998108,9.65530776977539,0.05626710504293442
1788093362798532900,6.807532958984375,1.6955777406692505,9.658863067626953,0.041967205703258514
1788093362808746800,6.817746826171875,1.6621638536453247,9.664603233337402,0.055253513157367706
1788093362818986000,6.827986083984375,1.6753981113433838,9.662317276000977,0.05524930730462074
1788093362829250300,6.838250244140625,1.7018909454345703,9.657705307006836,0.05195805802941322
1788093362849728500,6.858728515625,1.6850736141204834,9.660399436950684,0.08719038218259811
1788093362859992800,6.868992919921875,1.7073822021484375,9.656471252441406,0.08826860040426254
1788093362870206500,6.87920654296875,1.7172497510910034,9.654851913452148,0.07275480031967163
1788093362880420400,6.88942041015625,1.6652610301971436,9.664031982421875,0.06135082244873047
1788093362890592300,6.89959228515625,1.6457502841949463,9.667466163635254,0.04463939741253853
1788093362910593000,6.919593017578125,1.6542257070541382,9.666077613830566,-0.02924678660929203
1788093362920656000,6.92965576171875,1.5936126708984375,9.676223754882812,-0.03837084397673607
1788093362930719700,6.9397197265625,1.5777620077133179,9.678825378417969,-0.03732306882739067
1788093362940783000,6.949783203125,1.6024843454360962,9.674774169921875,-0.034257978200912476
1788093362950846500,6.959846435546875,1.6394535303115845,9.668564796447754,-0.03794343024492264
1788093362970974200,6.97997412109375,1.6138323545455933,9.672947883605957,0.004793565254658461
1788093362981037600,6.99003759765625,1.6274845600128174,9.670658111572266,0.00738575030118227
1788093362991251500,7.00025146484375,1.6331140995025635,9.669682502746582,-0.023910779505968094
1788093363001490700,7.01049072265625,1.5992377996444702,9.67526912689209,-0.0447777695953846
1788093363011755000,7.020755126953125,1.5888773202896118,9.676705360412598,-0.08502174913883209
1788093363021969000,7.030968994140625,1.6014600992202759,9.673973083496094,-0.1412629932165146
1788093363042472200,7.05147216796875,1.5833629369735718,9.675889015197754,-0.2013063281774521
1788093363052711200,7.061711181640625,1.602634072303772,9.672625541687012,-0.2055627554655075
1788093363062808800,7.071808837890625,1.629584789276123,9.668030738830566,-0.209844172000885
1788093363072967200,7.08196728515625,1.6147174835205078,9.670649528503418,-0.20400390028953552
1788093363093092600,7.102092529296875,1.595706582069397,9.674262046813965,-0.18102669715881348
1788093363113570800,7.12257080078125,1.5699973106384277,9.677735328674316,-0.21663330495357513
1788093363123784700,7.13278466796875,1.5737121105194092,9.677169799804688,-0.21494150161743164
1788093363134048800,7.143048828125,1.60099458694458,9.672595977783203,-0.21927951276302338
1788093363144262700,7.1532626953125,1.621963620185852,9.668875694274902,-0.22907401621341705
1788093363154519800,7.163519775390625,1.5719609260559082,9.677480697631836,-0.21376106142997742
1788093363164722000,7.173721923828125,1.5498785972595215,9.681465148925781,-0.19365645945072174
1788093363184897800,7.193897705078125,1.5534924268722534,9.68057632446289,-0.208549365401268
1788093363195112000,7.20411181640625,1.5338354110717773,9.683866500854492,-0.20114153623580933
1788093363205325800,7.214325927734375,1.5460106134414673,9.681968688964844,-0.1993073970079422
1788093363225804000,7.234803955078125,1.5521318912506104,9.680703163146973,-0.2127515822649002
1788093363246282000,7.255281982421875,1.4963041543960571,9.69013500213623,-0.18096302449703217
1788093363266590000,7.27558984375,1.4809037446975708,9.692445755004883,-0.18390315771102905
1788093363276653000,7.285653076171875,1.4957642555236816,9.690495491027832,-0.16542446613311768
1788093363286716400,7.29571630859375,1.5091902017593384,9.688499450683594,-0.16037240624427795
1788093363307044900,7.316044921875,1.4575670957565308,9.69593620300293,-0.18629242479801178
1788093363316956400,7.325956298828125,1.4321078062057495,9.699978828430176,-0.17282184958457947
1788093363327170300,7.33617041015625,1.4366205930709839,9.699331283569336,-0.17173455655574799
1788093363337435000,7.346434814453125,1.4732236862182617,9.693461418151855,-0.19187167286872864
1788093363347648800,7.356648681640625,1.4874895811080933,9.691462516784668,-0.18250276148319244
1788093363357837600,7.366837646484375,1.5035697221755981,9.68928050994873,-0.16593390703201294
1788093363388378400,7.39737841796875,1.4686410427093506,9.693879127502441,-0.20537234842777252
1788093363398628600,7.407628662109375,1.4824719429016113,9.691980361938477,-0.19540737569332123
1788093363408737500,7.417737548828125,1.5143816471099854,9.686766624450684,-0.2087901383638382
1788093363418801200,7.42780126953125,1.5332165956497192,9.683150291442871,-0.23718596994876862
1788093363428864800,7.43786474609375,1.5110270977020264,9.686762809753418,-0.2320127785205841
1788093363448992000,7.457991943359375,1.492286205291748,9.689225196838379,-0.24978597462177277
1788093363459055600,7.4680556640625,1.4856117963790894,9.689953804016113,-0.2610509991645813
1788093363469119000,7.478118896484375,1.4730076789855957,9.692466735839844,-0.2381363809108734
1788093363479257600,7.488257568359375,1.4783490896224976,9.692117691040039,-0.21847960352897644
1788093363489421000,7.498421142578125,1.4710071086883545,9.693013191223145,-0.22804316878318787
1788093363499358000,7.50835791015625,1.453589916229248,9.69565486907959,-0.22747348248958588
1788093363509622300,7.518622314453125,1.4636282920837402,9.694567680358887,-0.20867718756198883
1788093363519836200,7.528836181640625,1.4918607473373413,9.690179824829102,-0.21250060200691223
1788093363530100500,7.5391005859375,1.500548243522644,9.68845272064209,-0.22941571474075317
1788093363540314400,7.549314453125,1.464382529258728,9.69428539276123,-0.21637313067913055
1788093363550528300,7.5595283203125,1.4643402099609375,9.694941520690918,-0.18499380350112915
1788093363571006500,7.58000634765625,1.4752014875411987,9.693418502807617,-0.1783427894115448
1788093363581076500,7.590076416015625,1.4808127880096436,9.693086624145508,-0.14717751741409302
1788093363591290000,7.6002900390625,1.5218390226364136,9.687150955200195,-0.11623585969209671
1788093363601529300,7.610529296875,1.5222134590148926,9.687271118164062,-0.1000804454088211
1788093363611793700,7.620793701171875,1.517717957496643,9.688041687011719,-0.0936736911535263
1788093363622007800,7.6310078125,1.494659423828125,9.69198226928711,-0.04339570924639702
1788093363632272000,7.64127197265625,1.5040327310562134,9.69062614440918,-0.006241198163479567
1788093363652749800,7.661749755859375,1.473542332649231,9.695286750793457,0.021800994873046875
1788093363662964000,7.6719638671875,1.4993816614151,9.69112491607666,0.06584711372852325
1788093363673228300,7.682228271484375,1.5160291194915771,9.688340187072754,0.09005995839834213
1788093363683442400,7.6924423828125,1.5382061004638672,9.684758186340332,0.09888165444135666
1788093363693656300,7.70265625,1.4937129020690918,9.691215515136719,0.13985270261764526
1788093363703920400,7.71292041015625,1.5178650617599487,9.68658447265625,0.19118306040763855
1788093363724398800,7.73339892578125,1.5506783723831177,9.68087100982666,0.2156553715467453
1788093363734537700,7.743537841796875,1.5468639135360718,9.680750846862793,0.2463368922472
1788093363744710000,7.7537099609375,1.5887715816497803,9.672640800476074,0.29364532232284546
1788093363754974200,7.76397412109375,1.575079321861267,9.674615859985352,0.3021981716156006
1788093363765188400,7.774188232421875,1.567497968673706,9.676090240478516,0.2943006157875061
1788093363785666300,7.794666259765625,1.565225601196289,9.673457145690918,0.3803745210170746
1788093363795931000,7.804930908203125,1.5777864456176758,9.670421600341797,0.4048802852630615
1788093363806144800,7.815144775390625,1.5771483182907104,9.670658111572266,0.40170273184776306
1788093363816310800,7.825310791015625,1.5963345766067505,9.666860580444336,0.4170328974723816
1788093363826376400,7.83537646484375,1.6143138408660889,9.662525177001953,0.44719186425209045
1788093363846503700,7.855503662109375,1.6158554553985596,9.661913871765137,0.45476680994033813
1788093363856567000,7.865567138671875,1.613002896308899,9.661850929260254,0.4660899043083191
1788093363866630700,7.875630615234375,1.6211062669754028,9.66007137298584,0.4747939705848694
1788093363876694000,7.885694091796875,1.6287624835968018,9.659235954284668,0.4654797613620758
1788093363886757400,7.89575732421875,1.6059679985046387,9.663237571716309,0.46160486340522766
1788093363907085800,7.9160859375,1.6199009418487549,9.659738540649414,0.4855445623397827
1788093363916997400,7.925997314453125,1.6202644109725952,9.659395217895508,0.49113330245018005
1788093363927211300,7.936211181640625,1.593888282775879,9.66211223602295,0.5229735374450684
1788093363937475800,7.946475830078125,1.605950117111206,9.65844440460205,0.5529588460922241
1788093363947689700,7.956689697265625,1.6264216899871826,9.653882026672363,0.5724299550056458
1788093363957878500,7.96687841796875,1.6080596446990967,9.65683364868164,0.5745527148246765
1788093363978205700,7.987205810546875,1.5786725282669067,9.658706665039062,0.6225444674491882
1788093363988268500,7.9972685546875,1.5861562490463257,9.656795501708984,0.6330865025520325
1788093363998457000,8.00745703125,1.5939445495605469,9.656381607055664,0.6196771264076233
1788093364008664600,8.01766455078125,1.5735069513320923,9.659895896911621,0.6171588897705078
1788093364018843000,8.0278427734375,1.5646308660507202,9.660780906677246,0.6257998943328857
1788093364028931600,8.037931640625,1.5897108316421509,9.65665340423584,0.6263032555580139
1788093364049082400,8.058082275390625,1.5878173112869263,9.656578063964844,0.6322379112243652
1788093364059321300,8.0683212890625,1.6104267835617065,9.652307510375977,0.6402181386947632
1788093364069585400,8.07858544921875,1.6226463317871094,9.65063190460205,0.6345900297164917
1788093364079799300,8.08879931640625,1.602663516998291,9.654522895812988,0.6261187195777893
1788093364090063600,8.099063720703125,1.5931029319763184,9.65557861328125,0.6342074871063232
1788093364110516500,8.1195166015625,1.6074379682540894,9.65407943725586,0.6207023859024048
1788093364120579300,8.129579345703124,1.5516618490219116,9.663846969604492,0.610571026802063
1788093364130793200,8.139793212890625,1.547945261001587,9.663174629211426,0.6303243637084961
1788093364140931600,8.149931640625,1.5506631135940552,9.661681175231934,0.6463289260864258
1788093364150978000,8.15997802734375,1.5749706029891968,9.657729148864746,0.6466126441955566
1788093364171055400,8.180055419921874,1.5422948598861694,9.6626558303833,0.6517595052719116
1788093364181119000,8.190118896484375,1.5624693632125854,9.658930778503418,0.658882200717926
1788093364191332900,8.200332763671875,1.5746521949768066,9.65820026397705,0.6403343677520752
1788093364201572000,8.210572021484374,1.56060791015625,9.662381172180176,0.6109709143638611
1788093364211836400,8.22083642578125,1.5394573211669922,9.665692329406738,0.6122465133666992
1788093364222050300,8.23105029296875,1.5357471704483032,9.666424751281738,0.609998881816864
1788093364232314600,8.241314697265626,1.551405668258667,9.66576862335205,0.5800367593765259
1788093364252792600,8.26179248046875,1.502487301826477,9.675671577453613,0.5424969792366028
1788093364262891300,8.271891357421875,1.5027817487716675,9.676259994506836,0.5310655236244202
1788093364273049900,8.2820498046875,1.4917651414871216,9.678825378417969,0.515148937702179
1788093364283163000,8.292162841796875,1.4853205680847168,9.679471015930176,0.5215821266174316
1788093364293175300,8.30217529296875,1.5045716762542725,9.676769256591797,0.5165056586265564
1788093364313653500,8.322653564453125,1.4750967025756836,9.683399200439453,0.475666344165802
1788093364323716400,8.33271630859375,1.4940671920776367,9.68015193939209,0.48249542713165283
1788093364333905000,8.34290478515625,1.5204440355300903,9.676351547241211,0.47629597783088684
1788093364344118800,8.353118896484375,1.5073766708374023,9.679795265197754,0.44696274399757385
1788093364354383000,8.363383056640625,1.4495775699615479,9.689423561096191,0.4291543662548065
1788093364364597200,8.37359716796875,1.4548923969268799,9.68893051147461,0.4222491383552551
1788093364384912100,8.393912109375,1.4486216306686401,9.69222640991211,0.36420881748199463
1788093364394971400,8.403971435546875,1.4224311113357544,9.696843147277832,0.34394335746765137
1788093364405135000,8.414135009765625,1.4225947856903076,9.696451187133789,0.3541746437549591
1788093364415248100,8.424248046875,1.4019008874893188,9.69912052154541,0.36348795890808105
1788093364425260500,8.434260498046875,1.4363024234771729,9.694469451904297,0.35309886932373047
1788093364445713400,8.45471337890625,1.3896602392196655,9.700191497802734,0.3814678192138672
1788093364455978000,8.46497802734375,1.3924158811569214,9.700189590454102,0.3713173270225525
1788093364466192000,8.47519189453125,1.4165209531784058,9.69820499420166,0.3296724855899811
1788093364476330200,8.485330322265625,1.387002944946289,9.702795028686523,0.3199734687805176
1788093364486443500,8.495443603515625,1.3951274156570435,9.701715469360352,0.3173447847366333
1788093364506720300,8.51572021484375,1.3950873613357544,9.703340530395508,0.26325497031211853
1788093364516959200,8.525959228515624,1.382284164428711,9.705406188964844,0.2544884979724884
1788093364527053600,8.536053466796876,1.3725899457931519,9.70649528503418,0.26522722840309143
1788093364537120800,8.546120849609375,1.3658374547958374,9.707603454589844,0.2594253420829773
1788093364547259400,8.55625927734375,1.3805181980133057,9.706235885620117,0.23137585818767548
1788093364557473300,8.566473388671875,1.3788046836853027,9.706563949584961,0.22778961062431335
1788093364567385000,8.576385009765625,1.3614943027496338,9.70897388458252,0.22924569249153137
1788093364587863600,8.596863525390624,1.3926585912704468,9.705365180969238,0.19176818430423737
1788093364598127600,8.607127685546875,1.3749397993087769,9.707809448242188,0.19588252902030945
1788093364608341500,8.617341552734375,1.3880242109298706,9.705879211425781,0.19920727610588074
1788093364618605600,8.62760546875,1.4099217653274536,9.702902793884277,0.19021286070346832
1788093364628819500,8.6378193359375,1.404666781425476,9.703818321228027,0.18223094940185547
1788093364649079000,8.6580791015625,1.3867453336715698,9.706616401672363,0.17009776830673218
1788093364659293000,8.66829296875,1.3862429857254028,9.706968307495117,0.15323658287525177
1788093364669532000,8.678531982421875,1.3838800191879272,9.707436561584473,0.14466434717178345
1788093364679645200,8.688645263671875,1.355826497077942,9.711235046386719,0.1550380140542984
1788093364689657600,8.69865771484375,1.3631162643432617,9.71025562286377,0.15240377187728882
1788093364710135600,8.719135498046874,1.3839282989501953,9.707337379455566,0.15072110295295715
1788093364720349400,8.729349365234375,1.3837673664093018,9.70710277557373,0.1664900779724121
1788093364730614000,8.739614013671876,1.3957780599594116,9.705306053161621,0.1709596961736679
1788093364740819000,8.74981884765625,1.3880090713500977,9.706354141235352,0.17466764152050018
1788093364750973700,8.7599736328125,1.408008098602295,9.703411102294922,0.17809194326400757
1788093364771101000,8.780100830078124,1.3929835557937622,9.705645561218262,0.17443010210990906
1788093364781164800,8.790164794921875,1.3923327922821045,9.706010818481445,0.15860405564308167
1788093364791378700,8.800378662109376,1.359053373336792,9.710709571838379,0.159646138548851
1788093364801617700,8.81061767578125,1.3506314754486084,9.71196174621582,0.15482643246650696
1788093364811882000,8.820882080078125,1.333427906036377,9.714428901672363,0.1491006761789322
1788093364822096100,8.83109619140625,1.3195379972457886,9.716204643249512,0.15672391653060913
1788093364832360200,8.841360107421876,1.3286648988723755,9.71485424041748,0.16326697170734406
1788093364852838400,8.86183837890625,1.3210021257400513,9.715604782104492,0.17993243038654327
1788093364862937000,8.87193701171875,1.3350456953048706,9.713590621948242,0.18494191765785217
1788093364873096000,8.882095947265626,1.3126521110534668,9.716485977172852,0.19296804070472717
1788093364883209000,8.892208984375,1.3315352201461792,9.71420955657959,0.17757360637187958
1788093364893221600,8.9022216796875,1.336285948753357,9.713739395141602,0.16730883717536926
1788093364913699600,8.922699462890625,1.3206861019134521,9.716113090515137,0.15266644954681396
1788093364923762400,8.932762451171875,1.2956565618515015,9.719449043273926,0.15484711527824402
1788093364933951200,8.942951171875,1.3031412363052368,9.71851634979248,0.15044595301151276
1788093364944165000,8.9531650390625,1.289907455444336,9.7204008102417,0.14249880611896515
1788093364954429400,8.963429443359376,1.2632241249084473,9.72400951385498,0.1351427435874939
1788093364964643300,8.973643310546874,1.2728298902511597,9.722795486450195,0.13238480687141418
1788093364984958700,8.993958740234374,1.2879831790924072,9.72070598602295,0.13917721807956696
1788093364995018200,9.004018310546876,1.3114525079727173,9.717683792114258,0.13084512948989868
1788093365005182000,9.014181884765625,1.3117250204086304,9.717622756958008,0.1326005905866623
1788093365025307600,9.0343076171875,1.3211371898651123,9.716270446777344,0.13806384801864624
1788093365035521500,9.044521484375,1.3158684968948364,9.716939926147461,0.14118246734142303
1788093365045760500,9.054760498046875,1.342117190361023,9.713675498962402,0.11678323149681091
1788093365056024800,9.06502490234375,1.3121110200881958,9.717930793762207,0.10283926874399185
1788093365066239000,9.075239013671874,1.298490047454834,9.719644546508789,0.11328265815973282
1788093365076377300,9.08537744140625,1.30362069606781,9.718937873840332,0.11492249369621277
1788093365086490400,9.095490478515625,1.3081588745117188,9.718241691589355,0.12197739630937576
1788093365096704300,9.105704345703124,1.329264521598816,9.715448379516602,0.11622486263513565
1788093365106767400,9.115767333984374,1.3176509141921997,9.71690845489502,0.12602373957633972
1788093365117006300,9.12600634765625,1.3198801279067993,9.716429710388184,0.1389017552137375
1788093365127101000,9.136100830078124,1.3087400197982788,9.717869758605957,0.1434420347213745
1788093365137168100,9.146168212890625,1.2911592721939087,9.719983100891113,0.15885168313980103
1788093365147307000,9.15630712890625,1.3041430711746216,9.718247413635254,0.1589352786540985
1788093365167432400,9.176432373046875,1.2936009168624878,9.719329833984375,0.17781002819538116
1788093365187911400,9.196911376953125,1.3247648477554321,9.714900970458984,0.18990729749202728
1788093365198175500,9.207175537109375,1.3306221961975098,9.714061737060547,0.19188730418682098
1788093365208389400,9.217389404296876,1.3089239597320557,9.716730117797852,0.20556902885437012
1788093365218653400,9.2276533203125,1.3165351152420044,9.715569496154785,0.2117447704076767
1788093365228867300,9.237867431640625,1.3146904706954956,9.715850830078125,0.21026821434497833
1788093365249127000,9.258126953125,1.3216733932495117,9.715497970581055,0.18067629635334015
1788093365259340800,9.2683408203125,1.3125492334365845,9.716821670532227,0.1759481579065323
1788093365269353200,9.278353271484375,1.3250972032546997,9.715171813964844,0.17302989959716797
1788093365279466200,9.28846630859375,1.3093492984771729,9.717217445373535,0.177964448928833
1788093365289730600,9.29873046875,1.321417212486267,9.715691566467285,0.17198048532009125
1788093365310183400,9.319183349609375,1.3260059356689453,9.71510124206543,0.17002986371517181
1788093365320422400,9.32942236328125,1.3314648866653442,9.714495658874512,0.1617482304573059
1788093365330686500,9.3396865234375,1.3134769201278687,9.716925621032715,0.16284948587417603
1788093365340879400,9.34987939453125,1.3305764198303223,9.714682579040527,0.15775366127490997
1788093365351097300,9.360097412109376,1.342177391052246,9.71314811706543,0.15390677750110626
1788093365361311200,9.370311279296875,1.3706536293029785,9.709540367126465,0.12857671082019806
1788093365371575600,9.380575439453125,1.3694473505020142,9.710081100463867,0.09661413729190826
1788093365392054300,9.40105419921875,1.3540514707565308,9.712535858154297,0.05971391126513481
1788093365402268200,9.41126806640625,1.3364676237106323,9.71495246887207,0.06286493688821793
1788093365412532700,9.42153271484375,1.3433533906936646,9.714025497436523,0.05912596359848976
1788093365422685200,9.431685302734374,1.3482102155685425,9.713327407836914,0.06310630589723587
1788093365432790000,9.4417900390625,1.3646806478500366,9.71101188659668,0.06551153212785721
1788093365443054000,9.45205419921875,1.3568779230117798,9.712138175964355,0.06035856902599335
1788093365453319200,9.462319091796875,1.3604530096054077,9.71168041229248,0.053105130791664124
1788093365463533000,9.472532958984376,1.3405985832214355,9.714491844177246,0.042554907500743866
1788093365473797000,9.482797119140624,1.3349459171295166,9.71529483795166,0.03668422996997833
1788093365484011000,9.493010986328125,1.3250335454940796,9.716694831848145,0.022597629576921463
1788093365494225000,9.503224853515626,1.320339322090149,9.717348098754883,0.01592806726694107
1788093365504467700,9.5134677734375,1.3228826522827148,9.717013359069824,0.002461750525981188
1788093365524621600,9.53362158203125,1.3279848098754883,9.716317176818848,0.002424397971481085
1788093365534685200,9.543685302734374,1.3111075162887573,9.718609809875488,-0.0019481314811855555
1788093365544748500,9.55374853515625,1.3162968158721924,9.717904090881348,-0.009556518867611885
1788093365554812000,9.56381201171875,1.3048293590545654,9.719425201416016,-0.024432899430394173
1788093365574940200,9.583940185546876,1.3025050163269043,9.719544410705566,-0.06559419631958008
1788093365585004000,9.594004150390624,1.303278923034668,9.71938419342041,-0.07373550534248352
1788093365595068000,9.60406787109375,1.3094607591629028,9.718470573425293,-0.08381855487823486
1788093365605231600,9.614231689453124,1.293583869934082,9.720563888549805,-0.08765198290348053
1788093365615344600,9.6243447265625,1.2933411598205566,9.720459938049316,-0.10155851393938065
1788093365625357300,9.634357421875,1.2750006914138794,9.722857475280762,-0.10393990576267242
1788093365645835300,9.654835205078125,1.3056421279907227,9.718734741210938,-0.10906726121902466
1788093365656099300,9.665099365234376,1.3290613889694214,9.715293884277344,-0.1305670291185379
1788093365666313200,9.675313232421875,1.3136578798294067,9.717090606689453,-0.15119928121566772
1788093365676451600,9.68545166015625,1.279112696647644,9.721319198608398,-0.17377972602844238
1788093365686564900,9.69556494140625,1.2775145769119263,9.721177101135254,-0.19252987205982208
1788093365706841600,9.715841552734375,1.2785072326660156,9.720669746398926,-0.21065200865268707
1788093365717067500,9.726067626953125,1.2710371017456055,9.721488952636719,-0.2179149091243744
1788093365727154400,9.736154541015624,1.2614299058914185,9.722676277160645,-0.22075113654136658
1788093365737218300,9.74621826171875,1.2311513423919678,9.726482391357422,-0.22402653098106384
1788093365747357200,9.756357177734374,1.2258892059326172,9.72707462310791,-0.22714801132678986
1788093365767483000,9.77648291015625,1.2572956085205078,9.72237491607666,-0.2549521327018738
1788093365787961600,9.796961669921876,1.2913507223129272,9.716692924499512,-0.2977887988090515
1788093365798225700,9.8072255859375,1.247143030166626,9.722012519836426,-0.31223544478416443
1788093365808439600,9.817439453125,1.2237460613250732,9.724720001220703,-0.32041656970977783
1788093365818628400,9.82762841796875,1.214429497718811,9.725627899169922,-0.32821041345596313
1788093365828890000,9.83789013671875,1.2199580669403076,9.725172996520996,-0.32110559940338135
1788093365849177600,9.858177490234375,1.2581428289413452,9.720269203186035,-0.3222053647041321
1788093365859241500,9.868241455078126,1.2452157735824585,9.721985816955566,-0.3206460773944855
1788093365869305300,9.878305419921874,1.2439336776733398,9.721707344055176,-0.3338221311569214
1788093365879444000,9.88844384765625,1.2518678903579712,9.720494270324707,-0.3394143879413605
1788093365889607400,9.898607421875,1.2515521049499512,9.719840049743652,-0.35877475142478943
1788093365909808600,9.91880859375,1.2468948364257812,9.719317436218262,-0.38793495297431946
1788093365920073500,9.929073486328125,1.2380026578903198,9.720206260681152,-0.3941033184528351
1788093365930287400,9.939287353515626,1.2167037725448608,9.723015785217285,-0.39112335443496704
1788093365940501200,9.949501220703125,1.2297945022583008,9.72159194946289,-0.38553279638290405
1788093365950765800,9.959765869140625,1.2501059770584106,9.718774795532227,-0.3912043869495392
1788093365960980200,9.969980224609374,1.2774864435195923,9.715117454528809,-0.39358988404273987
1788093365981264600,9.9902646484375,1.2777236700057983,9.714005470275879,-0.419385701417923
1788093365991328300,10.000328369140625,1.2535032033920288,9.716594696044922,-0.43230435252189636
1788093366001391900,10.010391845703126,1.2539089918136597,9.716423034667969,-0.4349958300590515
1788093366011456000,10.0204560546875,1.235073447227478,9.719091415405273,-0.42924559116363525
1788093366021519400,10.030519287109374,1.2361226081848145,9.719557762145996,-0.4154213070869446
1788093366041646300,10.050646240234375,1.2537740468978882,9.717907905578613,-0.4008946418762207
1788093366051710700,10.060710693359376,1.2452014684677124,9.718684196472168,-0.4086875021457672
1788093366061875000,10.070875,1.2321361303329468,9.720170021057129,-0.41296136379241943
1788093366071988000,10.080988037109375,1.2251869440078735,9.721033096313477,-0.4133080840110779
1788093366082000400,10.09100048828125,1.2420504093170166,9.71877384185791,-0.4160859286785126
1788093366102478600,10.111478515625,1.242917537689209,9.71846866607666,-0.4206167757511139
1788093366112743400,10.121743408203125,1.2352278232574463,9.719742774963379,-0.41377949714660645
1788093366122957300,10.131957275390626,1.2499173879623413,9.718438148498535,-0.40006357431411743
1788093366133171200,10.142171142578125,1.2700589895248413,9.716147422790527,-0.39221131801605225
1788093366143385000,10.152385009765625,1.2757253646850586,9.715567588806152,-0.38814133405685425
1788093366153601000,10.16260107421875,1.2696998119354248,9.716559410095215,-0.38306912779808044
1788093366163670500,10.17267041015625,1.2594506740570068,9.717997550964355,-0.3803907632827759
1788093366173934800,10.182934814453125,1.2371673583984375,9.720894813537598,-0.3794742822647095
1788093366184173800,10.193173828125,1.2130359411239624,9.723934173583984,-0.3795178234577179
1788093366194438700,10.203438720703126,1.2262300252914429,9.722378730773926,-0.37695619463920593
1788093366204652800,10.21365283203125,1.2533440589904785,9.719773292541504,-0.3542976975440979
1788093366214866700,10.22386669921875,1.253960371017456,9.720033645629883,-0.3448311388492584
1788093366225131000,10.234131103515624,1.2329775094985962,9.723176956176758,-0.3316439986228943
1788093366245609500,10.254609375,1.2409021854400635,9.72240161895752,-0.324752539396286
1788093366255527400,10.26452734375,1.2636891603469849,9.71914005279541,-0.33432257175445557
1788093366265566700,10.274566650390625,1.2685010433197021,9.717930793762207,-0.3508952856063843
1788093366275630000,10.284630126953125,1.2548609972000122,9.718794822692871,-0.37517791986465454
1788093366285693400,10.294693359375,1.2137831449508667,9.723733901977539,-0.3822566270828247
1788093366295758000,10.304758056640624,1.2184617519378662,9.722978591918945,-0.3865450620651245
1788093366315885600,10.324885498046875,1.2688294649124146,9.717483520507812,-0.3619031310081482
1788093366325949400,10.334949462890625,1.2763487100601196,9.716961860656738,-0.34923088550567627
1788093366336013600,10.345013671875,1.2908415794372559,9.715118408203125,-0.3472529351711273
1788093366346127000,10.355127197265626,1.2687078714370728,9.718358039855957,-0.338078111410141
1788093366366630400,10.37563037109375,1.2097477912902832,9.725905418395996,-0.33713263273239136
1788093366376895500,10.3858955078125,1.2133331298828125,9.725072860717773,-0.34809866547584534
1788093366387109400,10.396109375,1.1930928230285645,9.72760009765625,-0.34744083881378174
1788093366397373400,10.40637353515625,1.209604024887085,9.725175857543945,-0.3580496907234192
1788093366407587300,10.41658740234375,1.2293974161148071,9.722147941589355,-0.3725531995296478
1788093366417801200,10.42680126953125,1.2356218099594116,9.721166610717773,-0.37753918766975403
1788093366428065500,10.4370654296875,1.2409049272537231,9.720375061035156,-0.3805864751338959
1788093366448544300,10.457544189453126,1.2335859537124634,9.722041130065918,-0.36135247349739075
1788093366458758100,10.467758056640625,1.2422064542770386,9.721122741699219,-0.3564923405647278
1788093366469022700,10.478022705078125,1.2467340230941772,9.720674514770508,-0.35289910435676575
1788093366479236900,10.48823681640625,1.2414973974227905,9.721461296081543,-0.34966644644737244
1788093366489460000,10.4984599609375,1.2353761196136475,9.722312927246094,-0.347665399312973
1788093366509814300,10.518814208984375,1.2310880422592163,9.722942352294922,-0.3452615439891815
1788093366520079400,10.529079345703124,1.2151684761047363,9.724872589111328,-0.34726548194885254
1788093366530293200,10.539293212890625,1.221203088760376,9.724081993103027,-0.3482508659362793
1788093366540507000,10.5495068359375,1.2288529872894287,9.722723960876465,-0.35910072922706604
1788093366550771500,10.559771484375,1.20291268825531,9.726123809814453,-0.3548023998737335
1788093366560985900,10.56998583984375,1.1921751499176025,9.727555274963379,-0.35182246565818787
1788093366581318700,10.590318603515625,1.2104984521865845,9.726438522338867,-0.3185579180717468
1788093366591382500,10.600382568359375,1.2106136083602905,9.726551055908203,-0.31466245651245117
1788093366601446400,10.6104462890625,1.2206156253814697,9.724878311157227,-0.327476441860199
1788093366611510500,10.620510498046874,1.2081304788589478,9.725892066955566,-0.34326502680778503
1788093366621574000,10.630573974609375,1.1948004961013794,9.726950645446777,-0.3595430254936218
1788093366641700900,10.650700927734375,1.20468270778656,9.725564002990723,-0.36404457688331604
1788093366651765200,10.66076513671875,1.2208951711654663,9.723661422729492,-0.3608316481113434
1788093366661929500,10.670929443359375,1.2270318269729614,9.7229585647583,-0.3589758574962616
1788093366682055000,10.691054931640625,1.2410461902618408,9.721489906311035,-0.35046786069869995
1788093366692319200,10.7013193359375,1.2596285343170166,9.718788146972656,-0.3589939773082733
1788093366712798000,10.7217978515625,1.2398252487182617,9.72092056274414,-0.37002983689308167
1788093366723011800,10.73201171875,1.2502845525741577,9.71961498260498,-0.369128942489624
1788093366733276400,10.7422763671875,1.2597638368606567,9.718998908996582,-0.35275182127952576
1788093366743490600,10.752490478515625,1.2395626306533813,9.72226619720459,-0.33378222584724426
1788093366753694000,10.76269384765625,1.2206411361694336,9.72508430480957,-0.32118451595306396
1788093366773789400,10.78278955078125,1.1940805912017822,9.728116989135742,-0.3290870785713196
1788093366783853300,10.792853271484375,1.2007750272750854,9.726926803588867,-0.3397142291069031
1788093366793917200,10.802917236328126,1.21083402633667,9.725485801696777,-0.34523338079452515
1788093366803980800,10.812980712890624,1.2258007526397705,9.723349571228027,-0.35251638293266296
1788093366814044700,10.823044677734375,1.2201132774353027,9.7242431640625,-0.34757280349731445
1788093366824108800,10.83310888671875,1.228753685951233,9.723552703857422,-0.3362864553928375
1788093366834172400,10.84317236328125,1.236533522605896,9.723339080810547,-0.3131071627140045
1788093366844411400,10.853411376953124,1.2472177743911743,9.722383499145508,-0.3001399636268616
1788093366854373400,10.863373291015625,1.22952139377594,9.724736213684082,-0.2969321608543396
1788093366864512000,10.873511962890625,1.229264736175537,9.724790573120117,-0.29622316360473633
1788093366874675500,10.883675537109376,1.2386937141418457,9.723403930664062,-0.3023766577243805
1788093366884788700,10.893788818359376,1.2347785234451294,9.723647117614746,-0.31048426032066345
1788093366905090600,10.914090576171875,1.231056809425354,9.72415828704834,-0.30926209688186646
1788093366915304400,10.924304443359375,1.2260676622390747,9.725013732910156,-0.30210086703300476
1788093366925518300,10.934518310546874,1.2330774068832397,9.724114418029785,-0.30253511667251587
1788093366935783000,10.944782958984375,1.2323342561721802,9.724498748779297,-0.29301759600639343
1788093366945997000,10.9549970703125,1.2431889772415161,9.723443031311035,-0.28200066089630127
1788093366966265600,10.975265625,1.2801647186279297,9.718670845031738,-0.28108441829681396
1788093366976324400,10.985324462890626,1.2703455686569214,9.719902992248535,-0.28297650814056396
1788093366986513200,10.99551318359375,1.2476425170898438,9.722818374633789,-0.28384584188461304
1788093366996576000,11.005575927734375,1.2483896017074585,9.722713470458984,-0.2841827869415283
1788093367006638800,11.015638916015625,1.2598053216934204,9.721240997314453,-0.28413307666778564
1788093367027091700,11.036091796875,1.2240362167358398,9.726165771484375,-0.27168336510658264
1788093367037356500,11.0463564453125,1.2294317483901978,9.725565910339355,-0.26880642771720886
1788093367047570400,11.0565703125,1.2621678113937378,9.72152328491211,-0.263255774974823
1788093367057784300,11.066784423828125,1.285927176475525,9.718456268310547,-0.26147764921188354
1788093367068049000,11.077048828125,1.313720941543579,9.714601516723633,-0.2665015757083893
1788093367078215200,11.087215087890625,1.3070824146270752,9.715503692626953,-0.2662719190120697
1788093367098348800,11.107348876953125,1.281767725944519,9.718501091003418,-0.27962207794189453
1788093367108412200,11.117412109375,1.2573277950286865,9.721857070922852,-0.2738933563232422
1788093367118476300,11.127476318359374,1.2786877155303955,9.719145774841309,-0.2712085247039795
1788093367128640300,11.13764013671875,1.2615565061569214,9.72187614440918,-0.2529459297657013
1788093367138803700,11.1478037109375,1.25985848903656,9.722410202026367,-0.2406320571899414
1788093367158980400,11.16798046875,1.2714207172393799,9.722040176391602,-0.18923991918563843
1788093367169244700,11.17824462890625,1.274929165840149,9.721593856811523,-0.18859410285949707
1788093367179508700,11.1885087890625,1.2435059547424316,9.7258939743042,-0.17623916268348694
1788093367189722600,11.19872265625,1.2358909845352173,9.72701644897461,-0.1676797866821289
1788093367199936500,11.2089365234375,1.2588502168655396,9.724226951599121,-0.1584240049123764
1788093367210194200,11.219194091796876,1.2484941482543945,9.725593566894531,-0.1564236730337143
1788093367230436900,11.239436767578125,1.2293574810028076,9.727766990661621,-0.17207707464694977
1788093367240499700,11.249499755859375,1.259839653968811,9.723630905151367,-0.1849077343940735
1788093367250563800,11.259563720703126,1.2556065320968628,9.724197387695312,-0.18392202258110046
1788093367260703200,11.269703125,1.2675834894180298,9.722890853881836,-0.1702977567911148
1788093367270866700,11.27986669921875,1.284752368927002,9.720880508422852,-0.15586908161640167
1788093367280828700,11.28982861328125,1.2799264192581177,9.721782684326172,-0.13826188445091248
1788093367291093000,11.300093017578124,1.2757506370544434,9.722492218017578,-0.1264532059431076
1788093367301332700,11.310332763671875,1.2567704916000366,9.725096702575684,-0.11584354937076569
1788093367311571700,11.32057177734375,1.2463865280151367,9.726466178894043,-0.11302686482667923
1788093367321785600,11.33078564453125,1.2625095844268799,9.72424602508545,-0.12449418753385544
1788093367332050200,11.34105029296875,1.289725422859192,9.720521926879883,-0.135827898979187
1788093367342264300,11.351264404296876,1.3110911846160889,9.717482566833496,-0.14820368587970734
1788093367352498200,11.361498291015625,1.3265398740768433,9.71540641784668,-0.1468905657529831
1788093367372588800,11.3815888671875,1.3079508543014526,9.718551635742188,-0.09695166349411011
1788093367382652700,11.391652587890626,1.328523874282837,9.715950012207031,-0.07577980309724808
1788093367392716500,11.401716552734374,1.356884479522705,9.711963653564453,-0.08370862901210785
1788093367402780000,11.41177978515625,1.3537968397140503,9.71222972869873,-0.1010768711566925
1788093367422908000,11.431907958984375,1.2828822135925293,9.721787452697754,-0.10697067528963089
1788093367432971800,11.4419716796875,1.2441688776016235,9.727177619934082,-0.06665065139532089
1788093367443185700,11.452185546875,1.2585302591323853,9.725504875183105,-0.03252050280570984
1788093367453198000,11.462197998046875,1.2732887268066406,9.723637580871582,0.00028800300788134336
1788093367463286000,11.4722861328125,1.287825345993042,9.721722602844238,-0.0020919269882142544
1788093367473474800,11.482474853515624,1.3168792724609375,9.717766761779785,-0.0352465882897377
1788093367483562800,11.492562744140624,1.3320624828338623,9.71558666229248,-0.05818327143788338
1788093367503890000,11.512889892578125,1.3596904277801514,9.71172046661377,-0.06422150880098343
1788093367514078700,11.52307861328125,1.3333961963653564,9.715455055236816,-0.048897866159677505
1788093367524292400,11.533292236328125,1.3026797771453857,9.71967601776123,-0.03612703084945679
1788093367534557000,11.543556884765625,1.293681025505066,9.720913887023926,-0.024766765534877777
1788093367544771300,11.553771240234376,1.2637543678283691,9.724868774414062,-0.01558452658355236
1788093367565069800,11.57406982421875,1.2332996129989624,9.728772163391113,0.01890862174332142
1788093367575124000,11.5841240234375,1.2488131523132324,9.726751327514648,0.03403928875923157
1788093367585287700,11.59428759765625,1.3014775514602661,9.719847679138184,0.033096689730882645
1788093367595401000,11.60440087890625,1.3618674278259277,9.711593627929688,0.025527719408273697
1788093367605413400,11.614413330078126,1.412252426147461,9.704427719116211,0.0038298473227769136
1788093367625891300,11.634891357421875,1.3993698358535767,9.706241607666016,-0.03200681135058403
1788093367636155600,11.64515576171875,1.3848129510879517,9.708340644836426,-0.02835060842335224
1788093367646369300,11.655369384765624,1.3537323474884033,9.712759971618652,-0.010027522221207619
1788093367656507600,11.665507568359375,1.3561067581176758,9.712433815002441,-0.0030063644517213106
1788093367666621000,11.675620849609375,1.360758900642395,9.711782455444336,0.0024057175032794476
1788093367686897700,11.695897705078124,1.347580909729004,9.713614463806152,0.010919627733528614
1788093367697125000,11.706125,1.3482756614685059,9.713465690612793,0.03345215320587158
1788093367707212300,11.71621240234375,1.3540407419204712,9.712600708007812,0.048555366694927216
1788093367717276400,11.7262763671875,1.3414024114608765,9.714293479919434,0.05940284952521324
1788093367727415300,11.736415283203126,1.3061089515686035,9.719101905822754,0.05935892090201378
1788093367737654500,11.746654541015625,1.3060134649276733,9.719088554382324,0.06355396658182144
1788093367747918600,11.756918701171875,1.3152966499328613,9.717757225036621,0.07469671219587326
1788093367768397600,11.7773974609375,1.315248727798462,9.717582702636719,0.09540767222642899
1788093367778661600,11.78766162109375,1.3279367685317993,9.715859413146973,0.09511449933052063
1788093367788875500,11.79787548828125,1.3231227397918701,9.716632843017578,0.08242802321910858
1788093367799089400,11.80808935546875,1.3145761489868164,9.717804908752441,0.0808883085846901
1788093367809353700,11.818353759765625,1.3333851099014282,9.71523666381836,0.0816180408000946
1788093367829832400,11.83883251953125,1.3738601207733154,9.709684371948242,0.07013646513223648
1788093367840096500,11.849096435546874,1.3796966075897217,9.708961486816406,0.05374840646982193
1788093367850310400,11.859310302734375,1.374423861503601,9.709756851196289,0.04433785378932953
1788093367860524300,11.869524169921876,1.3646427392959595,9.711148262023926,0.041611216962337494
1788093367870741500,11.879741455078126,1.357008457183838,9.712133407592773,0.05800884962081909
1788093367880814300,11.889814453125,1.3400588035583496,9.714313507080078,0.08209215104579926
1788093367890878200,11.899878173828125,1.3421157598495483,9.7138032913208,0.10549312829971313
1788093367900942300,11.9099423828125,1.354907512664795,9.711856842041016,0.12013323605060577
1788093367911156200,11.92015625,1.3829166889190674,9.708000183105469,0.11254490166902542
1788093367921219000,11.930218994140626,1.4013242721557617,9.705599784851074,0.08942920714616776
1788093367931282200,11.9402822265625,1.399414300918579,9.706125259399414,0.0562293566763401
1788093367941496600,11.95049658203125,1.4036988019943237,9.705634117126465,0.026316633448004723
1788093367951760600,11.9607607421875,1.3950600624084473,9.706900596618652,0.016596227884292603
1788093367972238600,11.981238525390625,1.4000996351242065,9.70615005493164,0.02752888761460781
1788093367982503000,11.9915029296875,1.3906817436218262,9.707474708557129,0.0364372618496418
1788093367992716500,12.001716552734376,1.3940744400024414,9.706964492797852,0.0422312468290329
1788093368012927500,12.021927490234376,1.3939292430877686,9.706962585449219,0.0472579263150692
1788093368033078300,12.042078369140626,1.3602725267410278,9.711694717407227,0.05521191656589508
1788093368043317200,12.052317138671874,1.3505700826644897,9.71304702758789,0.055249880999326706
1788093368053581600,12.06258154296875,1.333599328994751,9.715457916259766,0.04197682812809944
1788093368063770000,12.07277001953125,1.3496510982513428,9.713310241699219,0.02094174176454544
1788093368074009300,12.08300927734375,1.358567237854004,9.712074279785156,0.017490722239017487
1788093368084273400,12.0932734375,1.3750637769699097,9.70975399017334,0.016473108902573586
1788093368104716000,12.113716064453126,1.369913101196289,9.710474014282227,0.01997898705303669
1788093368114950100,12.1239501953125,1.377883791923523,9.709366798400879,0.0027755568735301495
1788093368125164000,12.1341640625,1.3720351457595825,9.710152626037598,-0.02905960939824581
1788093368135428600,12.1444287109375,1.3233165740966797,9.716812133789062,-0.052770983427762985
1788093368145642800,12.154642822265625,1.2812696695327759,9.722407341003418,-0.05958741530776024
1788093368166095600,12.175095703125,1.2850786447525024,9.721963882446289,-0.04884658008813858
1788093368176360700,12.185360595703125,1.3536362648010254,9.712653160095215,-0.04922197386622429
1788093368186574600,12.19557470703125,1.4290894269943237,9.701799392700195,-0.05652826651930809
1788093368196653800,12.20565380859375,1.454283356666565,9.697999000549316,-0.06528427451848984
1788093368206633000,12.215633056640625,1.4530621767044067,9.698132514953613,-0.07232104986906052
1788093368226961000,12.2359609375,1.4139314889907837,9.703680992126465,-0.0987435132265091
1788093368236872700,12.245872802734375,1.395407795906067,9.706218719482422,-0.11195504665374756
1788093368247086600,12.256086669921874,1.3871409893035889,9.707201957702637,-0.12831638753414154
1788093368257300500,12.266300537109375,1.3738592863082886,9.7089262008667,-0.14017781615257263
1788093368267565000,12.27656494140625,1.3625184297561646,9.710423469543457,-0.14701412618160248
1788093368277779200,12.286779296875,1.3567864894866943,9.711296081542969,-0.1422908902168274
1788093368298257400,12.30725732421875,1.3749207258224487,9.709007263183594,-0.12316840887069702
1788093368318718700,12.32771875,1.3770818710327148,9.70872974395752,-0.12082525342702866
1788093368328781300,12.33778125,1.3734456300735474,9.70913028717041,-0.12972740828990936
1788093368338844200,12.34784423828125,1.3746659755706787,9.708733558654785,-0.14547793567180634
1788093368349108700,12.358108642578125,1.3748060464859009,9.708334922790527,-0.1689380556344986
1788093368369562000,12.37856201171875,1.3319334983825684,9.714001655578613,-0.18576717376708984
1788093368379776000,12.38877587890625,1.3356415033340454,9.71362590789795,-0.178677037358284
1788093368390040800,12.399040771484374,1.3674137592315674,9.7091646194458,-0.18080104887485504
1788093368400254700,12.409254638671875,1.3871761560440063,9.706130027770996,-0.1928015947341919
1788093368410437600,12.419437744140625,1.3982247114181519,9.704042434692383,-0.21658068895339966
1788093368430554600,12.4395546875,1.3363487720489502,9.712006568908691,-0.24798712134361267
1788093368440617700,12.44961767578125,1.2817966938018799,9.71961784362793,-0.23751218616962433
1788093368450682000,12.45968212890625,1.2643342018127441,9.722367286682129,-0.21772484481334686
1788093368460746000,12.46974609375,1.2570358514785767,9.72374153137207,-0.1977243274450302
1788093368470809300,12.479809326171875,1.286765456199646,9.719797134399414,-0.2004121094942093
1788093368490938000,12.499938232421876,1.3078539371490479,9.716398239135742,-0.22692935168743134
1788093368501002200,12.510002197265624,1.2897753715515137,9.718706130981445,-0.23151056468486786
1788093368511216000,12.520216064453125,1.2980629205703735,9.71785831451416,-0.2205655872821808
1788093368521279000,12.530279052734375,1.3384548425674438,9.712279319763184,-0.22485241293907166
1788093368531342000,12.540342041015625,1.3424710035324097,9.711302757263184,-0.24238325655460358
1788093368541556500,12.550556396484374,1.3194736242294312,9.713797569274902,-0.26739487051963806
1788093368562059500,12.5710595703125,1.2732439041137695,9.71990966796875,-0.2694408595561981
1788093368572298500,12.581298583984376,1.2470839023590088,9.723611831665039,-0.25793343782424927
1788093368592675800,12.60167578125,1.174151062965393,9.733448028564453,-0.22744418680667877
1788093368602890000,12.611889892578125,1.1791260242462158,9.733000755310059,-0.22081400454044342
1788093368613154000,12.622154052734375,1.2028164863586426,9.730264663696289,-0.2134261280298233
1788093368623368000,12.632367919921874,1.2367310523986816,9.725790977478027,-0.22335748374462128
1788093368633556700,12.642556640625,1.2624565362930298,9.72218132019043,-0.23620329797267914
1788093368653883600,12.662883544921876,1.3059778213500977,9.715749740600586,-0.26273176074028015
1788093368663946500,12.672946533203126,1.3343876600265503,9.711481094360352,-0.2773636281490326
1788093368674135300,12.68313525390625,1.312072992324829,9.714215278625488,-0.2878568768501282
1788093368684349200,12.69334912109375,1.3073267936706543,9.714592933654785,-0.29661864042282104
1788093368694611000,12.70361083984375,1.299945592880249,9.71547794342041,-0.30001404881477356
1788093368704821000,12.713821044921875,1.3001277446746826,9.715498924255371,-0.2985667586326599
1788093368725324300,12.73432421875,1.305315613746643,9.71538257598877,-0.2790510356426239
1788093368735589000,12.744589111328125,1.3054865598678589,9.715510368347168,-0.2737922966480255
1788093368745803000,12.754802978515626,1.3217874765396118,9.713356018066406,-0.2719973027706146
1788093368756067300,12.7650673828125,1.3092399835586548,9.714824676513672,-0.28009033203125
1788093368766281200,12.77528125,1.3006799221038818,9.715742111206055,-0.2880721092224121
1788093368776494800,12.785494873046876,1.2853305339813232,9.717933654785156,-0.28296923637390137
1788093368786759200,12.79575927734375,1.3035210371017456,9.71558952331543,-0.28024256229400635
1788093368797024300,12.806024169921875,1.3060554265975952,9.715492248535156,-0.27166274189949036
1788093368807238100,12.816238037109375,1.3102465867996216,9.714956283569336,-0.2706906199455261
1788093368817452000,12.8264521484375,1.3019202947616577,9.716113090515137,-0.2693314254283905
1788093368827716600,12.836716552734375,1.287484884262085,9.717934608459473,-0.27298504114151
1788093368837930800,12.8469306640625,1.2830939292907715,9.718304634094238,-0.2803642749786377
1788093368848174600,12.857174560546875,1.3146611452102661,9.713811874389648,-0.2896656394004822
1788093368868509700,12.877509765625,1.3346322774887085,9.710468292236328,-0.30975961685180664
1788093368878774500,12.8877744140625,1.3241289854049683,9.712274551391602,-0.2979770302772522
1788093368888988700,12.89798876953125,1.2889361381530762,9.71749210357666,-0.2817356586456299
1788093368899202600,12.90820263671875,1.2477775812149048,9.723623275756836,-0.2541481852531433
1788093368909467000,12.918466796875,1.236196517944336,9.7256498336792,-0.2322646975517273
1788093368929945600,12.938945556640626,1.2886977195739746,9.718537330627441,-0.24429337680339813
1788093368940039400,12.949039306640625,1.3071138858795166,9.71517276763916,-0.27794668078422546
1788093368950103800,12.959103759765625,1.295282006263733,9.715944290161133,-0.30502671003341675
1788093368960243000,12.969242919921875,1.2786767482757568,9.717761039733887,-0.3170432448387146
1788093368970507300,12.97950732421875,1.2772644758224487,9.718067169189453,-0.3132714033126831
1788093368980721700,12.9897216796875,1.3031234741210938,9.715213775634766,-0.2947569191455841
1788093369001023700,13.010023681640625,1.3011080026626587,9.716360092163086,-0.26429617404937744
1788093369011237600,13.020237548828124,1.2856574058532715,9.718830108642578,-0.24861150979995728
1788093369021451300,13.030451171875,1.2783875465393066,9.71999454498291,-0.24045130610466003
1788093369031715600,13.040715576171875,1.2575173377990723,9.722793579101562,-0.23732449114322662
1788093369041908500,13.050908447265625,1.2531647682189941,9.72305965423584,-0.24915260076522827
1788093369052001500,13.06100146484375,1.2706561088562012,9.720355987548828,-0.26548731327056885
1788093369072304000,13.08130419921875,1.2692803144454956,9.719673156738281,-0.2953982353210449
1788093369082316500,13.091316650390626,1.2699183225631714,9.719791412353516,-0.2887013852596283
1788093369092430000,13.10143017578125,1.2698317766189575,9.720219612121582,-0.27429211139678955
1788093369102644200,13.111644287109375,1.2453447580337524,9.72398853302002,-0.2521000802516937
1788093369112908500,13.121908447265625,1.2332937717437744,9.725813865661621,-0.24067257344722748
1788093369133386500,13.142386474609374,1.2233295440673828,9.726530075073242,-0.26166051626205444
1788093369143600400,13.152600341796875,1.2118593454360962,9.727578163146973,-0.2756974995136261
1788093369153852400,13.162852294921874,1.2267193794250488,9.725533485412598,-0.2820247709751129
1788093369163962000,13.172962158203125,1.2624785900115967,9.720888137817383,-0.28436434268951416
1788093369174026000,13.18302587890625,1.3327754735946655,9.711187362670898,-0.2948746085166931
1788093369194154500,13.203154541015625,1.4020217657089233,9.700905799865723,-0.3116844594478607
1788093369204368400,13.213368408203126,1.3804285526275635,9.703645706176758,-0.32257384061813354
1788093369214380500,13.223380615234374,1.3383560180664062,9.709507942199707,-0.3234977424144745
1788093369224493800,13.233493896484376,1.3326281309127808,9.710027694702148,-0.33144456148147583
1788093369234657300,13.2436572265625,1.3466556072235107,9.707883834838867,-0.3374873399734497
1788093369244770600,13.2537705078125,1.3591560125350952,9.705710411071777,-0.34967413544654846
1788093369265072600,13.27407275390625,1.338383436203003,9.70920467376709,-0.33235329389572144
1788093369275286500,13.28428662109375,1.3214657306671143,9.712717056274414,-0.2954016923904419
1788093369285500200,13.294500244140625,1.335536241531372,9.71178150177002,-0.26081719994544983
1788093369295764700,13.3047646484375,1.3192631006240845,9.71451473236084,-0.24113091826438904
1788093369305979100,13.314979248046875,1.30729341506958,9.716029167175293,-0.24526835978031158
1788093369326248000,13.335248046875,1.2921671867370605,9.716960906982422,-0.28525441884994507
1788093369336307200,13.34530712890625,1.293611764907837,9.716255187988281,-0.30221137404441833
1788093369346496000,13.35549609375,1.3068299293518066,9.71410846710205,-0.3141394257545471
1788093369356558600,13.36555859375,1.3346095085144043,9.709942817687988,-0.325895756483078
1788093369366621400,13.375621337890625,1.342189073562622,9.708476066589355,-0.33822357654571533
1788093369387074600,13.396074462890626,1.3551537990570068,9.706385612487793,-0.34643539786338806
1788093369397339400,13.40633935546875,1.3284926414489746,9.710551261901855,-0.33270561695098877
1788093369407553300,13.41655322265625,1.285136103630066,9.716856002807617,-0.3186182677745819
1788093369417767200,13.42676708984375,1.2660768032073975,9.720199584960938,-0.2918156385421753
1788093369428031700,13.43703173828125,1.2729895114898682,9.719809532165527,-0.27419474720954895
1788093369438198000,13.447197998046875,1.287681221961975,9.717914581298828,-0.2727680206298828
1788093369458532400,13.467532470703125,1.3077442646026611,9.714319229125977,-0.30361804366111755
1788093369468444000,13.47744384765625,1.3071556091308594,9.71399974822998,-0.31613993644714355
1788093369478658000,13.487657958984375,1.2987756729125977,9.715209007263184,-0.31350961327552795
1788093369488871700,13.49787158203125,1.3059163093566895,9.714543342590332,-0.3043144941329956
1788093369499085600,13.50808544921875,1.2996920347213745,9.71569538116455,-0.2940523624420166
1788093369509350000,13.518349853515625,1.2699625492095947,9.719600677490234,-0.2948780953884125
1788093369529828600,13.53882861328125,1.2012214660644531,9.729015350341797,-0.271499365568161
1788093369550165500,13.55916552734375,1.2474137544631958,9.723566055297852,-0.2580966353416443
1788093369560229400,13.5692294921875,1.2895078659057617,9.717601776123047,-0.2752993404865265
1788093369570293500,13.57929345703125,1.3227970600128174,9.712574005126953,-0.2941043972969055
1788093369590421200,13.599421142578125,1.2967662811279297,9.715943336486816,-0.298710435628891
1788093369600484000,13.609484130859375,1.26321542263031,9.720953941345215,-0.27881714701652527
1788093369610548700,13.619548828125,1.2455135583877563,9.723618507385254,-0.2652186155319214
1788093369620612600,13.629612548828124,1.2633002996444702,9.721414566040039,-0.26182520389556885
1788093369630676200,13.63967626953125,1.278069019317627,9.719260215759277,-0.2700170874595642
1788093369651005200,13.660005126953125,1.2381486892700195,9.724381446838379,-0.2716231346130371
1788093369660916700,13.669916748046875,1.2351704835891724,9.725034713745117,-0.261614590883255
1788093369671130600,13.680130615234376,1.267035961151123,9.721051216125488,-0.2572003901004791
1788093369681344500,13.690344482421875,1.2921746969223022,9.717602729797363,-0.26243212819099426
1788093369691609000,13.700609130859375,1.28999924659729,9.717531204223633,-0.27546289563179016
1788093369701823200,13.7108232421875,1.2671219110488892,9.72034740447998,-0.282235324382782
1788093369712087600,13.721087646484374,1.2567222118377686,9.721736907958984,-0.2808278203010559
1788093369732551400,13.741551513671874,1.2874372005462646,9.71820068359375,-0.2635929584503174
1788093369742638000,13.75163818359375,1.3009041547775269,9.7163724899292,-0.2648424208164215
1788093369752702200,13.7617021484375,1.320124626159668,9.713628768920898,-0.2703264057636261
1788093369762766000,13.77176611328125,1.328597068786621,9.712300300598145,-0.27646127343177795
1788093369782894000,13.79189404296875,1.3116378784179688,9.71477222442627,-0.2705506384372711
1788093369792958200,13.801958251953126,1.3191916942596436,9.714093208312988,-0.2579025328159332
1788093369803172000,13.812172119140625,1.3296514749526978,9.71291446685791,-0.2484094500541687
1788093369813184300,13.822184326171875,1.3335106372833252,9.712398529052734,-0.2479064017534256
1788093369823272400,13.8322724609375,1.3180078268051147,9.714221000671387,-0.2591226398944855
1788093369833537000,13.842537109375,1.3035677671432495,9.716012954711914,-0.26493820548057556
1788093369843751400,13.85275146484375,1.2963920831680298,9.717044830322266,-0.26230135560035706
1788093369864078300,13.873078369140625,1.3487091064453125,9.710476875305176,-0.24085314571857452
1788093369874267100,13.88326708984375,1.355669379234314,9.709493637084961,-0.24138687551021576
1788093369884481000,13.89348095703125,1.3376914262771606,9.712055206298828,-0.23866814374923706
1788093369894739500,13.903739501953124,1.3048442602157593,9.716631889343262,-0.23414914309978485
1788093369904919000,13.9139189453125,1.28900146484375,9.718984603881836,-0.22407130897045135
1788093369925047300,13.93404736328125,1.3060935735702515,9.717035293579102,-0.20914091169834137
1788093369935111200,13.944111083984374,1.2972967624664307,9.718165397644043,-0.21133962273597717
1788093369945174800,13.9541748046875,1.2743656635284424,9.721096992492676,-0.2159520834684372
1788093369955288600,13.96428857421875,1.2579693794250488,9.723286628723145,-0.21355529129505157
1788093369965502500,13.97450244140625,1.2610026597976685,9.723150253295898,-0.2014854997396469
1788093369985678300,13.99467822265625,1.3193475008010864,9.715359687805176,-0.2037259191274643
1788093369995942700,14.004942626953126,1.3175767660140991,9.715533256530762,-0.20687320828437805
1788093370006156500,14.015156494140625,1.305275797843933,9.717185974121094,-0.20719750225543976
1788093370016370400,14.025370361328125,1.3013238906860352,9.718094825744629,-0.18864880502223969
1788093370026634800,14.035634765625,1.2994656562805176,9.718536376953125,-0.17834855616092682
1788093370036847000,14.04584716796875,1.3108880519866943,9.71695613861084,-0.18086408078670502
1788093370057136400,14.066136474609374,1.300885558128357,9.717537879943848,-0.21806946396827698
1788093370067200300,14.0762001953125,1.275824785232544,9.720772743225098,-0.22190210223197937
1788093370077264400,14.086264404296875,1.2615927457809448,9.722918510437012,-0.20888593792915344
1788093370087403300,14.0964033203125,1.2843871116638184,9.720331192016602,-0.18949295580387115
1788093370097642200,14.106642333984375,1.313381314277649,9.716748237609863,-0.1737840175628662
1788093370107906600,14.116906494140625,1.3279391527175903,9.714797973632812,-0.1722172051668167
1788093370128385300,14.13738525390625,1.2600332498550415,9.724028587341309,-0.1611950397491455
1788093370138649600,14.147649658203125,1.2374109029769897,9.726984024047852,-0.15809869766235352
1788093370148863500,14.157863525390624,1.248504877090454,9.725639343261719,-0.15347920358181
1788093370159077400,14.168077392578125,1.2637829780578613,9.723427772521973,-0.16786496341228485
1788093370179556000,14.18855615234375,1.2573823928833008,9.723774909973145,-0.19382938742637634
1788093370189820400,14.1988203125,1.2520354986190796,9.724462509155273,-0.19403566420078278
1788093370199883300,14.20888330078125,1.245685338973999,9.725568771362305,-0.17881761491298676
1788093370210072000,14.219072021484376,1.248113989830017,9.725621223449707,-0.15772968530654907
1788093370220210400,14.22921044921875,1.2595235109329224,9.72437572479248,-0.14314809441566467
1788093370230323700,14.23932373046875,1.2631908655166626,9.723944664001465,-0.1401834487915039
1788093370250801700,14.2598017578125,1.2529627084732056,9.72474479675293,-0.17268618941307068
1788093370260931600,14.269931640625,1.2733643054962158,9.721954345703125,-0.1803562492132187
1788093370271145500,14.2801455078125,1.3142876625061035,9.71635627746582,-0.18827112019062042
1788093370281208300,14.290208251953125,1.35698401927948,9.710346221923828,-0.19532817602157593
1788093370291271400,14.300271484375,1.3666417598724365,9.708694458007812,-0.20961402356624603
1788093370301485800,14.31048583984375,1.3520861864089966,9.710400581359863,-0.22442050278186798
1788093370332227800,14.341227783203125,1.24520742893219,9.725346565246582,-0.19357433915138245
1788093370342441700,14.351441650390624,1.2716071605682373,9.722028732299805,-0.18858709931373596
1788093370352696000,14.361696044921874,1.2833003997802734,9.720359802246094,-0.19529277086257935
1788093370362828800,14.371828857421875,1.2755857706069946,9.721229553222656,-0.20240889489650726
1788093370382956800,14.391956787109375,1.264832854270935,9.722808837890625,-0.19386817514896393
1788093370393021000,14.40202099609375,1.2780600786209106,9.72124195098877,-0.18547600507736206
1788093370403234800,14.41223486328125,1.2788211107254028,9.720958709716797,-0.19485077261924744
1788093370413247200,14.422247314453125,1.2605650424957275,9.723133087158203,-0.20503921806812286
1788093370423360500,14.432360595703125,1.2390018701553345,9.725601196289062,-0.2189774066209793
1788093370433599500,14.442599609375,1.2268143892288208,9.727041244506836,-0.22356006503105164
1788093370443863600,14.452863525390624,1.2289305925369263,9.72674560546875,-0.22479762136936188
1788093370464341500,14.473341552734375,1.2512637376785278,9.723503112792969,-0.24130286276340485
1788093370474580700,14.483580810546876,1.2367455959320068,9.725301742553711,-0.243635356426239
1788093370484770000,14.49377001953125,1.2399359941482544,9.725025177001953,-0.23842166364192963
1788093370494918400,14.50391845703125,1.2361491918563843,9.725790023803711,-0.2265404611825943
1788093370505007000,14.514007080078125,1.2432106733322144,9.724908828735352,-0.225782573223114
1788093370525158000,14.534157958984375,1.2496626377105713,9.723603248596191,-0.24549457430839539
1788093370535396900,14.54439697265625,1.2344245910644531,9.724937438964844,-0.2686671316623688
1788093370545661000,14.554660888671876,1.223921775817871,9.726007461547852,-0.27778342366218567
1788093370555874800,14.564874755859375,1.2364962100982666,9.724169731140137,-0.28634774684906006
1788093370566139100,14.57513916015625,1.2524070739746094,9.722057342529297,-0.28891149163246155
1788093370576352800,14.585352783203126,1.2562168836593628,9.7214937210083,-0.2913303077220917
1788093370596816100,14.605816162109376,1.2208735942840576,9.726218223571777,-0.2837797999382019
1788093370606880000,14.6158798828125,1.2108253240585327,9.727652549743652,-0.27759885787963867
1788093370616943900,14.62594384765625,1.220196008682251,9.726686477661133,-0.27033570408821106
1788093370627008000,14.636008056640625,1.2120155096054077,9.727788925170898,-0.2674682140350342
1788093370637072000,14.64607177734375,1.213806390762329,9.727130889892578,-0.2828303575515747
1788093370657199900,14.666199951171874,1.2294398546218872,9.72429370880127,-0.3113971948623657
1788093370667263700,14.676263671875,1.249942660331726,9.721406936645508,-0.31982964277267456
1788093370677328000,14.686327880859375,1.2661828994750977,9.71940803527832,-0.3166876435279846
1788093370687466800,14.696466796875,1.2722320556640625,9.718448638916016,-0.32185718417167664
1788093370697705700,14.706705810546875,1.2584172487258911,9.719860076904297,-0.3332861661911011
