time,seconds_elapsed,z,y,x
1788093356135004000,0.14400390625,-0.15210533142089844,0.04001164436340332,0.231212317943573
1788093356145067300,0.1540673828125,-0.18631376326084137,0.10323614627122879,0.10415244847536087
1788093356155130400,0.16413037109375,-0.10476330667734146,0.08857539296150208,-0.24404047429561615
1788093356165193500,0.174193359375,-0.1649334877729416,0.08429934084415436,-0.02412915788590908
1788093356175256600,0.184256591796875,-0.11362084746360779,-0.15515965223312378,0.05222893878817558
1788093356185319700,0.194319580078125,-0.034208428114652634,-0.0015271619195118546,-0.050090912729501724
1788093356195382800,0.2043828125,-0.02718348242342472,-0.057726722210645676,0.010995565913617611
1788093356205446000,0.21444580078125,-0.0030543238390237093,-0.07269290834665298,0.21319180727005005
1788093356215509000,0.224509033203125,0.0668896958231926,0.009162971749901772,-0.06444623321294785
1788093356225572000,0.234572021484375,0.051618073135614395,0.019242240116000175,-0.21807873249053955
1788093356235635200,0.24463525390625,-0.03329212963581085,0.06597339361906052,-0.0513126403093338
1788093356245698300,0.2546982421875,-0.041844237595796585,-0.07941242307424545,0.05955931544303894
1788093356255761400,0.264761474609375,-0.04764745384454727,0.010079269297420979,0.02260199747979641
1788093356265824800,0.27482470703125,-0.012522728182375431,-0.048563748598098755,0.05070177838206291
1788093356275887900,0.284887939453125,-0.013133592903614044,0.02260199747979641,0.06994401663541794
1788093356285951000,0.294950927734375,-0.046425722539424896,-0.025961752980947495,0.029932374134659767
1788093356296014000,0.30501416015625,-0.0021380267571657896,0.06230820715427399,-0.11484257876873016
1788093356306077200,0.3150771484375,0.029626941308379173,0.033597562462091446,-0.13958260416984558
1788093356316140300,0.325140380859375,-0.003665188793092966,0.0412333719432354,0.09498947113752365
1788093356326203400,0.335203369140625,-0.018325943499803543,-0.025350889191031456,0.07635809481143951
1788093356336266500,0.3452666015625,0.011911863461136818,-0.01435532234609127,0.06750056147575378
1788093356346329600,0.35532958984375,0.10415244847536087,-0.056810423731803894,0.07941242307424545
1788093356356392700,0.365392822265625,0.11728604137897491,0.05436696484684944,0.1380554437637329
1788093356366455800,0.375455810546875,0.08949168771505356,-0.01282816007733345,-0.026572618633508682
1788093356376519000,0.385518798828125,0.16523891687393188,-0.021685699000954628,-0.12003492563962936
1788093356386582300,0.395582275390625,0.07422006875276566,-0.057726722210645676,-0.18081597983837128
1788093356396645400,0.405645263671875,0.1444695144891739,-0.1542433500289917,0.11087195575237274
1788093356406708500,0.41570849609375,0.03237583488225937,-0.09468404203653336,0.129197895526886
1788093356416771300,0.425771240234375,0.07116574794054031,-0.07330377399921417,0.1029307171702385
1788093356426834400,0.43583447265625,0.05497783049941063,-0.029016077518463135,0.04917461425065994
1788093356436897800,0.445897705078125,0.011300998739898205,0.03848448023200035,-0.0974329337477684
1788093356446961000,0.4559609375,0.005192350596189499,0.06200277432799339,-0.008246674202382565
1788093356457024000,0.46602392578125,-0.06750056147575378,0.07147117704153061,-0.0818558782339096
1788093356467087000,0.476087158203125,0.001221729558892548,-0.07422006875276566,-0.11514800786972046
1788093356477150200,0.486150146484375,-0.04764745384454727,-0.036651886999607086,0.0256563201546669
1788093356487213300,0.49621337890625,-0.08826996386051178,-0.018325943499803543,0.06230820715427399
1788093356497276400,0.5062763671875,-0.05192350596189499,-0.03298669680953026,0.043371398001909256
1788093356507339500,0.516339599609375,-0.010690134018659592,-0.008246674202382565,0.04245510324835777
1788093356517402600,0.526402587890625,0.009773836471140385,0.01954767294228077,0.001221729558892548
1788093356527465700,0.5364658203125,0.026878049597144127,0.006719512399286032,-0.05070177838206291
1788093356537528800,0.54652880859375,0.02779434807598591,0.01802051067352295,-0.07635809481143951
1788093356547592000,0.556592041015625,0.03909534588456154,-0.13683371245861053,-0.12644900381565094
1788093356557655300,0.5666552734375,-0.035735588520765305,-0.13988803327083588,-0.10018182545900345
1788093356567718400,0.576718505859375,-0.04764745384454727,-0.02779434807598591,0.008246674202382565
1788093356577781500,0.586781494140625,-0.0616973415017128,-0.04459312930703163,0.20433427393436432
1788093356587844600,0.5968447265625,-0.032681263983249664,-0.0204639695584774,0.11453714966773987
1788093356597907700,0.60690771484375,0.000610864779446274,0.05925388261675835,-0.04764745384454727
1788093356607970800,0.616970703125,-0.023212861269712448,0.02871064469218254,-0.18356487154960632
1788093356618034000,0.627033935546875,-0.04520399495959282,-0.011911863461136818,0.09346231073141098
1788093356628097000,0.637096923828125,-0.029626941308379173,-0.001832594396546483,0.030543239787220955
1788093356638160100,0.64716015625,0.036651886999607086,-0.164322629570961,-0.053145237267017365
1788093356648223200,0.65722314453125,-0.061391908675432205,-0.12247838824987411,-0.11942406743764877
1788093356658286300,0.667286376953125,-0.04917461425065994,-0.04550942778587341,0.04062250629067421
1788093356668349400,0.677349365234375,-0.06291907280683517,0.014660755172371864,0.09651663154363632
1788093356678412500,0.68741259765625,-0.021380268037319183,-0.0027488914784044027,0.12461641430854797
1788093356688475600,0.6974755859375,0.007330377586185932,-0.0030543238390237093,0.09285144507884979
1788093356698538800,0.707538818359375,0.0256563201546669,0.0720820426940918,0.0054977829568088055
1788093356708601900,0.717601806640625,0.08002328872680664,0.06719512492418289,-0.003359756199643016
1788093356718665000,0.7276650390625,0.10873392969369888,0.04734202101826668,-0.043982263654470444
1788093356728728300,0.737728271484375,0.0769689604640007,-0.016187917441129684,-0.0616973415017128
1788093356738791400,0.74779150390625,0.04214967042207718,-0.12217295914888382,-0.023212861269712448
1788093356748854500,0.7578544921875,0.07757982611656189,-0.06261363625526428,0.13988803327083588
1788093356758917600,0.767917724609375,0.14569124579429626,-0.1334739476442337,0.20708316564559937
1788093356768980700,0.777980712890625,0.19700388610363007,-0.10629047453403473,0.041844237595796585
1788093356789107000,0.79810693359375,0.06322450190782547,0.0027488914784044027,-0.2813032269477844
1788093356799170000,0.808170166015625,-0.020769402384757996,0.13988803327083588,-0.025961752980947495
1788093356809233200,0.818233154296875,-0.09590577334165573,0.1945604383945465,0.06963858753442764
1788093356819296300,0.828296142578125,-0.10048725455999374,0.0766635313630104,0.059864748269319534
1788093356829359400,0.838359375,-0.14049890637397766,0.09926552325487137,-0.09957095980644226
1788093356839422500,0.84842236328125,-0.11087195575237274,0.01649334840476513,0.020769402384757996
1788093356849485600,0.858485595703125,-0.04825831577181816,-0.009162971749901772,0.13622283935546875
1788093356859548700,0.868548583984375,0.057726722210645676,-0.10567960888147354,0.17592905461788177
1788093356869611800,0.87861181640625,0.14080433547496796,-0.12217295914888382,0.06475166976451874
1788093356879675000,0.8886748046875,0.20922118425369263,-0.13622283935546875,-0.15515965223312378
1788093356889738000,0.898738037109375,0.19089524447917938,-0.13194678723812103,-0.12156209349632263
1788093356899801000,0.908801025390625,0.1591302752494812,-0.10873392969369888,-0.05283980444073677
1788093356909864400,0.918864501953125,0.14019346237182617,-0.12247838824987411,-0.04245510324835777
1788093356919927600,0.928927490234375,0.05589412897825241,-0.03848448023200035,-0.07299833744764328
1788093356929990700,0.93899072265625,-0.053145237267017365,-0.006414080038666725,-0.07483093440532684
1788093356940053800,0.9490537109375,-0.12156209349632263,0.059864748269319534,0.06811141967773438
1788093356950116900,0.959116943359375,-0.11056652665138245,0.1029307171702385,0.15729768574237823
1788093356960180000,0.969179931640625,-0.10079269111156464,0.06291907280683517,0.13988803327083588
1788093356970243000,0.9792431640625,-0.06444623321294785,0.02779434807598591,-0.09621120244264603
1788093356980306200,0.98930615234375,-0.017715077847242355,0.04581485688686371,-0.20341797173023224
1788093356990369300,0.999369384765625,-0.0873536616563797,0.018325943499803543,-0.09896009415388107
1788093357000432400,1.009432373046875,-0.06933315098285675,-0.050090912729501724,0.21746785938739777
1788093357010495500,1.01949560546875,-0.05497783049941063,0.04673115536570549,0.1798996776342392
1788093357020558600,1.02955859375,0.029016077518463135,-0.0409279391169548,-0.051618073135614395
1788093357030621700,1.03962158203125,-0.007330377586185932,-0.043371398001909256,-0.24220788478851318
1788093357040684800,1.049684814453125,-0.02871064469218254,-0.014966187067329884,-0.12278381735086441
1788093357050748000,1.059747802734375,-0.06230820715427399,0.032681263983249664,0.17806708812713623
1788093357060811000,1.06981103515625,-0.053145237267017365,-0.025961752980947495,0.3228420317173004
1788093357070874000,1.0798740234375,0.006414080038666725,-0.01740964688360691,0.18906265497207642
1788093357080937500,1.0899375,0.06200277432799339,0.012217295356094837,-0.15729768574237823
1788093357091000600,1.10000048828125,0.012522728182375431,-0.01435532234609127,-0.13225223124027252
1788093357101063700,1.110063720703125,-0.02107483521103859,-0.019242240116000175,-0.04276053607463837
1788093357111126500,1.12012646484375,0.007941242307424545,-0.04520399495959282,0.05070177838206291
1788093357121189600,1.130189697265625,-0.05436696484684944,-0.036651886999607086,-0.01588248461484909
1788093357131253000,1.1402529296875,-0.08888082206249237,-0.0412333719432354,-0.04886918142437935
1788093357141316000,1.150316162109375,-0.08399390429258347,0.01802051067352295,0.04276053607463837
1788093357151379200,1.160379150390625,-0.03817904740571976,0.041844237595796585,0.1493564397096634
1788093357161442300,1.1704423828125,-0.007635809946805239,0.017715077847242355,0.1637117564678192
1788093357171505400,1.18050537109375,0.025961752980947495,-0.028099779039621353,-0.033597562462091446
1788093357181568500,1.190568603515625,0.0308486707508564,0.007024944759905338,-0.189673513174057
1788093357191631600,1.200631591796875,0.0015271619195118546,-0.01893680728971958,-0.1288924664258957
1788093357201694700,1.21069482421875,-0.06261363625526428,-0.025045456364750862,0.16157373785972595
1788093357211757800,1.2207578125,-0.0766635313630104,0.06047561392188072,0.2315177470445633
1788093357221821000,1.230821044921875,-0.013133592903614044,0.031154103577136993,0.06536252796649933
1788093357231884000,1.240884033203125,-0.02779434807598591,0.027488915249705315,-0.23182319104671478
1788093357241947100,1.250947021484375,-0.09315688163042068,-0.03176496922969818,-0.27000224590301514
1788093357252010200,1.26101025390625,-0.10140355676412582,0.0027488914784044027,-0.0565049909055233
1788093357262073300,1.2710732421875,-0.09834922850131989,0.048563748598098755,0.25534147024154663
1788093357272136400,1.281136474609375,-0.0974329337477684,0.015577051788568497,0.22449280321598053
1788093357282199600,1.291199462890625,-0.056810423731803894,0.059864748269319534,-0.07360920310020447
1788093357292262700,1.3012626953125,-0.03390299528837204,0.09193515032529831,-0.3588830530643463
1788093357302326000,1.311325927734375,-0.05222893878817558,0.08979712426662445,-0.164322629570961
1788093357312389000,1.32138916015625,-0.07574722915887833,0.05955931544303894,0.020158538594841957
1788093357322452200,1.3314521484375,-0.0717766135931015,-0.006719512399286032,0.13561198115348816
1788093357332515300,1.341515380859375,-0.11056652665138245,0.039706211537122726,0.07238747924566269
1788093357342578400,1.351578369140625,-0.12583814561367035,-0.013439024798572063,-0.10231985151767731
1788093357352641500,1.3616416015625,-0.1389717310667038,0.001221729558892548,-0.11117739230394363
1788093357362704600,1.37170458984375,-0.13133592903614044,0.023212861269712448,0.06108647957444191
1788093357372767700,1.381767822265625,-0.12553271651268005,0.03695731982588768,0.13133592903614044
1788093357382830800,1.391830810546875,-0.12522727251052856,0.07544180005788803,-0.057726722210645676
1788093357392894000,1.40189404296875,-0.1594357043504715,0.047952886670827866,-0.314289927482605
1788093357402957000,1.41195703125,-0.19272783398628235,0.0009162971982732415,-0.2098320573568344
1788093357413020200,1.422020263671875,-0.28496840596199036,0.013744457624852657,-0.11545344442129135
1788093357423083300,1.432083251953125,-0.2880227565765381,-0.19883649051189423,0.18600831925868988
1788093357433146400,1.442146484375,-0.013439024798572063,-0.10659590363502502,0.143553227186203
1788093357443209500,1.45220947265625,0.04153880476951599,-0.08002328872680664,-0.0717766135931015
1788093357453272600,1.4622724609375,-0.03543015569448471,0.017104214057326317,-0.34147340059280396
1788093357463335700,1.472335693359375,-0.18906265497207642,-0.0665842592716217,-0.1844811588525772
1788093357473398800,1.482398681640625,-0.048563748598098755,-0.0360410213470459,0.16004657745361328
1788093357483462000,1.4924619140625,0.08521563559770584,-0.08949168771505356,0.35155269503593445
1788093357493525000,1.50252490234375,0.12950333952903748,0,0.21441353857517242
1788093357503588000,1.512588134765625,0.11484257876873016,0.1750127524137497,-0.07360920310020447
1788093357513651200,1.522651123046875,0.009773836471140385,0.12522727251052856,-0.1805105358362198
1788093357523714600,1.532714599609375,-0.00946840364485979,-0.07605266571044922,0.026572618633508682
1788093357533777700,1.542777587890625,0.06994401663541794,0.005803215317428112,0.06780599057674408
1788093357543840800,1.5528408203125,-0.03848448023200035,-0.1441640853881836,0.17684535682201385
1788093357553903900,1.56290380859375,0.10109812021255493,0.022296564653515816,-0.011300998739898205
1788093357563966700,1.572966796875,0.06414080411195755,0.10201441496610641,-0.04276053607463837
1788093357574030000,1.583030029296875,-0.001221729558892548,-0.11087195575237274,0.15485422313213348
1788093357584093200,1.59309326171875,0.1233946830034256,0.07422006875276566,0.24006985127925873
1788093357594156300,1.60315625,0.20799945294857025,-0.007941242307424545,0.13713914155960083
1788093357604219400,1.613219482421875,0.21746785938739777,-0.2052505612373352,-0.10934479534626007
1788093357614282500,1.623282470703125,0.2556469142436981,-0.18570289015769958,-0.17898337543010712
1788093357624345600,1.633345703125,0.1386663019657135,-0.10506874322891235,-0.15760311484336853
1788093357634408700,1.64340869140625,0.014966187067329884,-0.08307760953903198,0.09651663154363632
1788093357644471800,1.653471923828125,-0.09376774728298187,0.09682206809520721,0.023823726922273636
1788093357654535000,1.663534912109375,-0.09926552325487137,0.07544180005788803,-0.1496618688106537
1788093357664598000,1.673597900390625,-0.16187916696071625,0.06872228533029556,-0.3607156574726105
1788093357674661000,1.6836611328125,-0.1737910360097885,0.05742128938436508,-0.19730933010578156
1788093357684724200,1.69372412109375,-0.1649334877729416,0.08399390429258347,0.16126830875873566
1788093357694787300,1.703787353515625,-0.07605266571044922,0.004886918235570192,0.3552178740501404
1788093357704850400,1.713850341796875,0.04367683082818985,-0.053756099194288254,0.16523891687393188
1788093357714913500,1.72391357421875,0.1951712965965271,-0.07299833744764328,-0.18112140893936157
1788093357724976600,1.7339765625,0.2006690800189972,-0.12431098520755768,-0.2715294063091278
1788093357735039700,1.744039794921875,0.250149130821228,-0.2809978127479553,-0.009162971749901772
1788093357745103000,1.75410302734375,0.2626718580722809,-0.2971857190132141,0.13133592903614044
1788093357755166000,1.764166015625,0.2788597643375397,-0.20861032605171204,0.1029307171702385
1788093357765229000,1.77422900390625,0.2712239623069763,-0.17256930470466614,-0.013133592903614044
1788093357775292200,1.784292236328125,0.1957821547985077,-0.10659590363502502,-0.10598503798246384
1788093357785355300,1.794355224609375,0.17287473380565643,-0.030543239787220955,0.009162971749901772
1788093357795418600,1.804418701171875,0.15057817101478577,0.0030543238390237093,0.1597411334514618
1788093357805481700,1.814481689453125,0.09560033679008484,-0.01435532234609127,0.11636973917484283
1788093357815544800,1.824544921875,0.03176496922969818,0.01649334840476513,-0.16615521907806396
1788093357825608000,1.83460791015625,-0.04153880476951599,0.10842850059270859,-0.23793183267116547
1788093357835671000,1.844671142578125,-0.10048725455999374,0.07757982611656189,-0.09621120244264603
1788093357845734100,1.854734130859375,-0.19364413619041443,0.05803215503692627,0.20830489695072174
1788093357855797200,1.86479736328125,-0.1432477980852127,0.07544180005788803,0.2632827162742615
1788093357865860400,1.8748603515625,-0.0360410213470459,-0.0027488914784044027,0.05558869615197182
1788093357875923500,1.88492333984375,0.004276053514331579,-0.035735588520765305,-0.31520622968673706
1788093357885986600,1.894986572265625,-0.013439024798572063,-0.025350889191031456,-0.3543015718460083
1788093357896049700,1.905049560546875,-0.06230820715427399,0.034208428114652634,-0.01588248461484909
1788093357906112800,1.91511279296875,-0.07299833744764328,0.024434590712189674,0.364991694688797
1788093357916176000,1.92517578125,-0.0409279391169548,-0.021685699000954628,0.3597993552684784
1788093357926239000,1.935239013671875,0.012217295356094837,0.025045456364750862,0.007941242307424545
1788093357936302000,1.945302001953125,0.009162971749901772,0.03176496922969818,-0.27947062253952026
1788093357946365200,1.955365234375,-0.06536252796649933,-0.015577051788568497,-0.1130099818110466
1788093357956428300,1.96542822265625,-0.10659590363502502,0.04978547990322113,0.0409279391169548
1788093357966491400,1.975491455078125,-0.11362084746360779,0.022907428443431854,0.12675444781780243
1788093357976554500,1.985554443359375,-0.17837251722812653,0.017104214057326317,0.06017018109560013
1788093357986617600,1.99561767578125,-0.1649334877729416,0.032070402055978775,-0.08888082206249237
1788093357996680700,2.0056806640625,-0.15149445831775665,0.0977383628487587,-0.03145953640341759
1788093358006743800,2.015743896484375,-0.11881320178508759,0.08429934084415436,0.14049890637397766
1788093358016807200,2.02580712890625,-0.0772743970155716,0.03817904740571976,0.1945604383945465
1788093358026870000,2.0358701171875,-0.04306596517562866,0.05192350596189499,-0.051618073135614395
1788093358036933000,2.04593310546875,-0.05070177838206291,0.06627883017063141,-0.28496840596199036
1788093358046996200,2.055996337890625,-0.09315688163042068,0.000305432389723137,-0.25992295145988464
1788093358057059300,2.066059326171875,-0.13041962683200836,-0.007635809946805239,0.06200277432799339
1788093358067122700,2.076122802734375,-0.15485422313213348,0.04520399495959282,0.1340848207473755
1788093358077185800,2.086185791015625,-0.0974329337477684,0.01282816007733345,0.032681263983249664
1788093358087249000,2.096248779296875,-0.11056652665138245,0.03634645417332649,-0.2214384824037552
1788093358097312000,2.10631201171875,-0.1282816082239151,0.04825831577181816,-0.21838416159152985
1788093358107374800,2.116374755859375,-0.1640172004699707,0.08124501258134842,0.035124726593494415
1788093358117438200,2.126438232421875,-0.13988803327083588,0.10384701192378998,0.31001389026641846
1788093358127501300,2.136501220703125,-0.09437860548496246,0.1029307171702385,0.24495677649974823
1788093358137564400,2.146564453125,-0.038789913058280945,0.09712749719619751,-0.06352993845939636
1788093358147627500,2.15662744140625,-0.028405211865901947,0.11698060482740402,-0.33505934476852417
1788093358157690600,2.166690673828125,0.01649334840476513,0.01649334840476513,-0.12583814561367035
1788093358167753700,2.176753662109375,-0.021991131827235222,-0.02779434807598591,0.000610864779446274
1788093358177816800,2.18681689453125,-0.007024944759905338,-0.06627883017063141,0.056810423731803894
1788093358187880000,2.1968798828125,-0.06352993845939636,-0.03634645417332649,0.012217295356094837
1788093358197943000,2.206943115234375,-0.129197895526886,0.007941242307424545,-0.10506874322891235
1788093358208006100,2.217006103515625,-0.1853974610567093,0.05803215503692627,-0.02718348242342472
1788093358218069200,2.2270693359375,-0.15241076052188873,-0.0054977829568088055,0.10079269111156464
1788093358228132400,2.23713232421875,-0.01649334840476513,-0.043982263654470444,0.10445787757635117
1788093358238195500,2.247195556640625,0.04520399495959282,-0.07422006875276566,-0.11026109009981155
1788093358248258600,2.257258544921875,0.0015271619195118546,0.00946840364485979,-0.25473061203956604
1788093358258321700,2.26732177734375,-0.05833758786320686,-0.04459312930703163,-0.15729768574237823
1788093358268384800,2.277384765625,-0.18142683804035187,-0.09865466505289078,0.033597562462091446
1788093358278447900,2.28744775390625,-0.08032871782779694,-0.1328630894422531,0.1288924664258957
1788093358288511000,2.297510986328125,-0.02932151034474373,-0.04825831577181816,0.04214967042207718
1788093358298574000,2.307573974609375,-0.06444623321294785,-0.14721840620040894,-0.14569124579429626
1788093358308637200,2.31763720703125,-0.16157373785972595,-0.031154103577136993,-0.20647229254245758
1788093358318700300,2.3277001953125,-0.11362084746360779,-0.000305432389723137,-0.0021380267571657896
1788093358328763400,2.337763427734375,0.04276053607463837,-0.08093958348035812,0.23457208275794983
1788093358338826800,2.34782666015625,0.1545487940311432,-0.05894844979047775,0.21807873249053955
1788093358348889600,2.3578896484375,0.15027274191379547,0.09101885557174683,0.057726722210645676
1788093358358952700,2.36795263671875,0.06230820715427399,0.1542433500289917,-0.1078176349401474
1788093358369015800,2.378015869140625,0.000610864779446274,-0.003359756199643016,0.03298669680953026
1788093358379079000,2.388078857421875,0.05803215503692627,0.023518294095993042,0.07269290834665298
1788093358389142300,2.398142333984375,0.02626718580722809,-0.018631376326084137,0.08918625861406326
1788093358399205400,2.408205322265625,0.005192350596189499,0.005803215317428112,0.03390299528837204
1788093358409268500,2.4182685546875,-0.04978547990322113,0.004581485874950886,-0.007941242307424545
1788093358419331300,2.428331298828125,0.001221729558892548,0.13194678723812103,0.013439024798572063
1788093358429394400,2.43839453125,-0.006414080038666725,-0.15760311484336853,0.29046618938446045
1788093358439457800,2.448457763671875,0.1637117564678192,0.1288924664258957,0.13622283935546875
1788093358449521000,2.45852099609375,0.08613193035125732,-0.1847866028547287,-0.05742128938436508
1788093358459584000,2.468583984375,0.026572618633508682,-0.2874118685722351,-0.16249002516269684
1788093358469647000,2.478647216796875,0.031154103577136993,-0.049480047076940536,-0.10415244847536087
1788093358479710200,2.488710205078125,-0.12522727251052856,-0.0818558782339096,0.17898337543010712
1788093358489773300,2.498773193359375,-0.19425499439239502,0.05589412897825241,0.13958260416984558
1788093358499836400,2.50883642578125,-0.15271618962287903,0.09621120244264603,-0.09407317638397217
1788093358509899500,2.5188994140625,-0.21777328848838806,0.03481929376721382,-0.3381136655807495
1788093358519962600,2.528962646484375,-0.2629773020744324,-0.021380268037319183,-0.2528980076313019
1788093358530025700,2.539025634765625,-0.1279761642217636,-0.039706211537122726,0.05436696484684944
1788093358540088800,2.5490888671875,0.06352993845939636,-0.09407317638397217,0.28527384996414185
1788093358550152000,2.55915185546875,0.19150610268115997,-0.07086031138896942,0.16798780858516693
1788093358560215000,2.569215087890625,0.21899501979351044,0.13927717506885529,-0.13133592903614044
1788093358570278100,2.579278076171875,0.1282816082239151,0.1853974610567093,-0.32528549432754517
1788093358580341200,2.58934130859375,0.06291907280683517,0.007941242307424545,-0.12003492563962936
1788093358590404400,2.599404296875,0.11453714966773987,0.05345066636800766,0.029626941308379173
1788093358600467500,2.609467529296875,0.1130099818110466,-0.005192350596189499,0.06536252796649933
1788093358610530600,2.619530517578125,0.07513637095689774,-0.007024944759905338,0.022907428443431854
1788093358620593700,2.62959375,0.010995565913617611,0.056199558079242706,-0.06505709886550903
1788093358630656800,2.63965673828125,-0.004886918235570192,0.05070177838206291,0.039706211537122726
1788093358640720000,2.649719970703125,0.08613193035125732,0.0769689604640007,0.17592905461788177
1788093358650783000,2.659782958984375,0.14019346237182617,0.009773836471140385,0.16218459606170654
1788093358660846000,2.66984619140625,0.16737695038318634,-0.07757982611656189,-0.12400554865598679
1788093358670909200,2.6799091796875,0.21349723637104034,-0.11117739230394363,-0.24312418699264526
1788093358680972300,2.68997216796875,0.2315177470445633,-0.14599667489528656,-0.129197895526886
1788093358691035400,2.700035400390625,0.14294235408306122,-0.1585194170475006,0.18692462146282196
1788093358701098500,2.710098388671875,0.17623448371887207,-0.07330377399921417,0.18753549456596375
1788093358711161600,2.72016162109375,0.23976442217826843,-0.05283980444073677,0.007024944759905338
1788093358721224700,2.730224609375,0.19608759880065918,-0.09437860548496246,-0.3136790692806244
1788093358731287800,2.740287841796875,0.10903936624526978,-0.08979712426662445,-0.2828303873538971
1788093358741351000,2.750350830078125,0.018325943499803543,0.0565049909055233,-0.030543239787220955
1788093358751414000,2.7604140625,-0.033597562462091446,0.06444623321294785,0.291687935590744
1788093358761477400,2.770477294921875,-0.04306596517562866,0.07910698652267456,0.2577849328517914
1788093358771540500,2.78054052734375,0.03023780696094036,0.033597562462091446,-0.03543015569448471
1788093358781603300,2.790603271484375,0.010079269297420979,0.0021380267571657896,-0.24770566821098328
1788093358791666400,2.80066650390625,0.04550942778587341,-0.20677772164344788,-0.03817904740571976
1788093358801729500,2.8107294921875,0.038789913058280945,-0.23243404924869537,0.12614357471466064
1788093358811793000,2.82079296875,0.05955931544303894,-0.25503605604171753,0.21807873249053955
1788093358821856000,2.83085595703125,0.07757982611656189,-0.21746785938739777,0.12400554865598679
1788093358831919000,2.840919189453125,0.040317077189683914,-0.0054977829568088055,-0.007635809946805239
1788093358841982200,2.850982177734375,0,0.15149445831775665,0.021380268037319183
1788093358852045000,2.861045166015625,-0.07574722915887833,0.12675444781780243,0.07116574794054031
1788093358862108400,2.8711083984375,-0.056199558079242706,0.08307760953903198,0.01282816007733345
1788093358872171500,2.881171630859375,-0.0769689604640007,0.05039634555578232,-0.15821397304534912
1788093358882234600,2.891234619140625,-0.10720676928758621,-0.003665188793092966,-0.09040798991918564
1788093358892297700,2.901297607421875,-0.2513708472251892,0.13255766034126282,0.1130099818110466
1788093358902360800,2.91136083984375,-0.2559523284435272,0.14019346237182617,0.3136790692806244
1788093358912424000,2.921423828125,-0.2315177470445633,0.17745621502399445,0.16035200655460358
1788093358922487000,2.931487060546875,-0.1701258420944214,0.129197895526886,-0.14691297709941864
1788093358932550100,2.941550048828125,-0.15179990231990814,0.03940077871084213,-0.2516762912273407
1788093358942613200,2.95161328125,-0.1389717310667038,0.025045456364750862,-0.0873536616563797
1788093358952676400,2.96167626953125,-0.10506874322891235,0.04825831577181816,0.22235478460788727
1788093358962739500,2.971739501953125,-0.03481929376721382,0.0027488914784044027,0.26450446248054504
1788093358972802600,2.981802490234375,0.06566796451807022,-0.031154103577136993,0.07086031138896942
1788093358982865700,2.99186572265625,0.10323614627122879,0.0009162971982732415,-0.2730565667152405
1788093358992928800,3.0019287109375,0.13225223124027252,-0.11026109009981155,-0.1178968995809555
1788093359002991900,3.011991943359375,0.09346231073141098,-0.057726722210645676,-0.054672397673130035
1788093359013055000,3.022054931640625,0.09285144507884979,-0.08460476994514465,-0.0030543238390237093
1788093359023118000,3.0321181640625,0.015271619893610477,-0.061391908675432205,-0.012217295356094837
1788093359033181200,3.04218115234375,-0.06902772188186646,0.015577051788568497,-0.007024944759905338
1788093359043244300,3.052244384765625,-0.07880155742168427,0.06902772188186646,0.11209368705749512
1788093359053307400,3.062307373046875,-0.06200277432799339,0.08338304609060287,0.16249002516269684
1788093359063370500,3.07237060546875,-0.04673115536570549,0.05436696484684944,0.1185077652335167
1788093359073433600,3.08243359375,-0.025045456364750862,0.003665188793092966,-0.18600831925868988
1788093359083496700,3.09249658203125,0.014049889519810677,-0.04153880476951599,-0.2721402645111084
1788093359093559800,3.102559814453125,-0.019242240116000175,0.007330377586185932,-0.1902843713760376
1788093359103623000,3.112622802734375,-0.04673115536570549,-0.10079269111156464,0.2006690800189972
1788093359113686000,3.12268603515625,-0.08979712426662445,-0.0412333719432354,0.1997527778148651
1788093359123749000,3.1327490234375,-0.015271619893610477,0.025350889191031456,0.012522728182375431
1788093359133812200,3.142812255859375,-0.07116574794054031,0.09896009415388107,-0.26969680190086365
1788093359143875300,3.152875244140625,-0.10354158282279968,0.10995566099882126,-0.14233149588108063
1788093359153938400,3.1629384765625,-0.1230892539024353,0.09651663154363632,0.17684535682201385
1788093359164001500,3.17300146484375,-0.060781046748161316,-0.02412915788590908,0.3958403766155243
1788093359174064600,3.183064697265625,0.006414080038666725,-0.04550942778587341,0.24556763470172882
1788093359184128000,3.1931279296875,0.12522727251052856,-0.007024944759905338,-0.14172062277793884
1788093359194191000,3.203191162109375,0.10934479534626007,0.03329212963581085,-0.27427828311920166
1788093359204254200,3.213254150390625,0.13988803327083588,-0.11362084746360779,-0.13622283935546875
1788093359214317000,3.223317138671875,0.13775001466274261,-0.1487455666065216,-0.007635809946805239
1788093359224380200,3.233380126953125,0.10690133273601532,-0.11484257876873016,0.019853105768561363
1788093359234443500,3.243443603515625,0.049480047076940536,-0.0873536616563797,0.02932151034474373
1788093359244506600,3.253506591796875,-0.008552107028663158,0.004886918235570192,0.035735588520765305
1788093359254569700,3.26356982421875,-0.007024944759905338,0.060781046748161316,0.1542433500289917
1788093359264632800,3.2736328125,0.001832594396546483,0.06627883017063141,0.18173226714134216
1788093359274696000,3.283696044921875,0.037262752652168274,0.05497783049941063,0.05528326332569122
1788093359284759000,3.293759033203125,0.031154103577136993,0.06108647957444191,-0.2263254076242447
1788093359294822100,3.303822265625,0.0766635313630104,-0.023212861269712448,-0.16249002516269684
1788093359304885200,3.31388525390625,-0.025045456364750862,-0.026878049597144127,-0.03145953640341759
1788093359314948400,3.3239482421875,0.022907428443431854,-0.11331541836261749,0.26450446248054504
1788093359325011500,3.334011474609375,0.007330377586185932,0.010384701192378998,0.11148282140493393
1788093359335074600,3.344074462890625,0.05742128938436508,0.009773836471140385,-0.13041962683200836
1788093359345137700,3.3541376953125,-0.035124726593494415,-0.003359756199643016,-0.28466299176216125
1788093359355200800,3.36420068359375,-0.08552107214927673,-0.013744457624852657,-0.054672397673130035
1788093359365264000,3.374263916015625,-0.10567960888147354,-0.011911863461136818,0.26419901847839355
1788093359375327000,3.384326904296875,-0.09437860548496246,-0.021991131827235222,0.3430005609989166
1788093359385390000,3.39439013671875,-0.029016077518463135,0.05558869615197182,0.1337793916463852
1788093359395453200,3.404453125,-0.013439024798572063,0.16523891687393188,-0.23243404924869537
1788093359405516300,3.414516357421875,-0.009773836471140385,0.036651886999607086,-0.11698060482740402
1788093359415579400,3.424579345703125,-0.0308486707508564,-0.007024944759905338,-0.09071341902017593
1788093359425642500,3.434642578125,0.01588248461484909,-0.12034036219120026,-0.04917461425065994
1788093359435705600,3.44470556640625,0.003665188793092966,-0.13744457066059113,-0.04428769648075104
1788093359445768700,3.454768798828125,-0.01588248461484909,-0.08888082206249237,-0.03481929376721382
1788093359455832000,3.46483203125,0.03451386094093323,-0.03390299528837204,0.08307760953903198
1788093359465895000,3.47489501953125,0.05711585655808449,-0.0015271619195118546,0.15485422313213348
1788093359475958000,3.4849580078125,0.03481929376721382,-0.01954767294228077,0.1337793916463852
1788093359486021000,3.495021240234375,0.03298669680953026,0.031154103577136993,-0.15302163362503052
1788093359496084200,3.505084228515625,0.03787361457943916,0.04428769648075104,-0.19394956529140472
1788093359506147600,3.515147705078125,-0.06994401663541794,0.1545487940311432,-0.1902843713760376
1788093359516210700,3.525210693359375,-0.07574722915887833,-0.009773836471140385,0.1185077652335167
1788093359526273800,3.535273681640625,-0.09193515032529831,0.053756099194288254,0.07880155742168427
1788093359536337000,3.5453369140625,-0.017104214057326317,0.003970621153712273,-0.07513637095689774
1788093359546399700,3.555399658203125,-0.08032871782779694,0.0308486707508564,-0.2684750556945801
1788093359556463000,3.565463134765625,-0.10354158282279968,-0.02107483521103859,-0.05406153202056885
1788093359566526200,3.575526123046875,-0.12950333952903748,-0.06200277432799339,0.27855435013771057
1788093359576589300,3.58558935546875,-0.05711585655808449,-0.07513637095689774,0.4712821841239929
1788093359586652400,3.59565234375,0.016798781231045723,-0.007635809946805239,0.28405213356018066
1788093359596715500,3.605715576171875,0.1078176349401474,0.047952886670827866,-0.17073670029640198
1788093359606778600,3.615778564453125,0.09010255336761475,-0.004581485874950886,-0.19700388610363007
1788093359616841700,3.625841796875,0.09682206809520721,-0.07757982611656189,-0.22174391150474548
1788093359626904800,3.63590478515625,0.1334739476442337,-0.1490510106086731,-0.13194678723812103
1788093359636968000,3.645968017578125,0.0665842592716217,-0.0977383628487587,-0.12370011955499649
1788093359647031000,3.656031005859375,0.013744457624852657,-0.06414080411195755,-0.01954767294228077
1788093359657094100,3.66609423828125,-0.017104214057326317,-0.006414080038666725,0.11667517572641373
1788093359667157200,3.6761572265625,0.000305432389723137,0.016187917441129684,0.2205221801996231
1788093359677220400,3.686220458984375,-0.002443459117785096,0.047036588191986084,0.14233149588108063
1788093359697346600,3.7063466796875,0.050090912729501724,0.08032871782779694,-0.27488914132118225
1788093359707409700,3.71640966796875,0.04306596517562866,-0.01588248461484909,-0.22693626582622528
1788093359717472800,3.72647265625,0.007330377586185932,-0.06261363625526428,0.16096286475658417
1788093359727536000,3.7365361328125,-0.05345066636800766,-0.007024944759905338,0.16584978997707367
1788093359737599000,3.746598876953125,0.005192350596189499,-0.019242240116000175,0.024434590712189674
1788093359747662000,3.756662109375,-0.09590577334165573,0.1438586562871933,-0.2675587832927704
1788093359757725200,3.76672509765625,-0.12064579129219055,0.0925460159778595,-0.17592905461788177
1788093359767788300,3.776788330078125,-0.15699224174022675,0.035735588520765305,0.06902772188186646
1788093359777851600,3.7868515625,-0.08979712426662445,-0.004886918235570192,0.32192572951316833
1788093359787914800,3.796914794921875,-0.04459312930703163,0.000305432389723137,0.23029601573944092
1788093359797977900,3.806977783203125,0.03543015569448471,-0.006719512399286032,-0.09682206809520721
1788093359808041000,3.817041015625,0.026878049597144127,0.06200277432799339,-0.18723005056381226
1788093359818104000,3.82710400390625,0.027488915249705315,0.0021380267571657896,-0.15027274191379547
1788093359828167200,3.837167236328125,0.03390299528837204,-0.10751219838857651,-0.0616973415017128
1788093359838230300,3.847230224609375,-0.04214967042207718,-0.041844237595796585,-0.05039634555578232
1788093359848293400,3.85729345703125,-0.09346231073141098,-0.02932151034474373,-0.017715077847242355
1788093359858356500,3.8673564453125,-0.09040798991918564,0.0256563201546669,0.10842850059270859
1788093359868419600,3.877419677734375,-0.0616973415017128,0.05070177838206291,0.18845178186893463
1788093359878482700,3.887482666015625,-0.03787361457943916,-0.009162971749901772,0.1380554437637329
1788093359888545800,3.8975458984375,0.006719512399286032,0.004581485874950886,-0.10048725455999374
1788093359898609000,3.90760888671875,0.0360410213470459,0.05192350596189499,-0.27488914132118225
1788093359908672000,3.917672119140625,0.014660755172371864,-0.05253437161445618,-0.18387030065059662
1788093359918735000,3.927735107421875,-0.032681263983249664,-0.10384701192378998,0.17562362551689148
1788093359928798200,3.937798095703125,-0.04673115536570549,-0.043371398001909256,0.21349723637104034
1788093359938861300,3.947861328125,0.008552107028663158,-0.05406153202056885,0.023518294095993042
1788093359948924700,3.957924560546875,-0.056199558079242706,0.057726722210645676,-0.2809978127479553
1788093359958987800,3.96798779296875,-0.06750056147575378,0.05436696484684944,-0.24220788478851318
1788093359969051000,3.97805078125,-0.12675444781780243,0.0409279391169548,0.06627883017063141
1788093359979114000,3.988114013671875,-0.08368847519159317,0.01588248461484909,0.3402516841888428
1788093359989177000,3.998177001953125,-0.054672397673130035,-0.006414080038666725,0.29077163338661194
1788093359999240200,4.008240234375,0.005192350596189499,-0.0308486707508564,-0.06414080411195755
1788093360009303300,4.01830322265625,-0.001221729558892548,0.12247838824987411,-0.25503605604171753
1788093360019366400,4.028366455078125,0.035124726593494415,0.013133592903614044,-0.14691297709941864
1788093360029429500,4.038429443359375,0.01649334840476513,-0.06566796451807022,-0.001832594396546483
1788093360039492600,4.04849267578125,-0.007024944759905338,-0.04062250629067421,0.019853105768561363
1788093360049555700,4.0585556640625,-0.023212861269712448,-0.08491020649671555,0.05283980444073677
1788093360059618800,4.068618896484375,-0.06994401663541794,-0.008246674202382565,0.07788526266813278
1788093360069682000,4.078681884765625,-0.015271619893610477,0.05803215503692627,0.1496618688106537
1788093360079745300,4.088745361328125,0.004581485874950886,0.04367683082818985,0.15241076052188873
1788093360089808400,4.098808349609375,0.03298669680953026,-0.003665188793092966,-0.0027488914784044027
1788093360099871500,4.10887158203125,0.04734202101826668,0.016187917441129684,-0.24312418699264526
1788093360109934600,4.1189345703125,0.09529490768909454,-0.10476330667734146,-0.1798996776342392
1788093360119997700,4.128997802734375,-0.023823726922273636,-0.06994401663541794,0.07299833744764328
1788093360130060800,4.139060791015625,0.0030543238390237093,-0.08002328872680664,0.22907429933547974
1788093360140124000,4.1491240234375,0.017715077847242355,-0.01893680728971958,0.09804379940032959
1788093360150187300,4.159187255859375,-0.028405211865901947,0.06261363625526428,-0.24434591829776764
1788093360160250400,4.16925048828125,-0.08002328872680664,0.03909534588456154,-0.2629773020744324
1788093360170313500,4.1793134765625,-0.1288924664258957,0.05925388261675835,-0.015577051788568497
1788093360180376600,4.18937646484375,-0.10903936624526978,0.04306596517562866,0.3121519088745117
1788093360190439700,4.199439697265625,-0.09437860548496246,0.004581485874950886,0.2974911332130432
1788093360200502800,4.209502685546875,0.01282816007733345,-0.010690134018659592,0.0256563201546669
1788093360210566000,4.21956591796875,-0.004276053514331579,0.12461641430854797,-0.26480987668037415
1788093360220629200,4.229629150390625,0.04306596517562866,-0.04214967042207718,-0.1444695144891739
1788093360230692400,4.2396923828125,0.013439024798572063,-0.06017018109560013,-0.06383536756038666
1788093360240755500,4.24975537109375,0.004886918235570192,-0.04550942778587341,-0.020769402384757996
1788093360250818600,4.259818603515625,-0.037262752652168274,-0.09193515032529831,0.0021380267571657896
1788093360260881700,4.269881591796875,-0.07849612087011337,-0.010079269297420979,0.07360920310020447
1788093360270945000,4.279945068359375,-0.053756099194288254,0.05742128938436508,0.14263692498207092
1788093360281008000,4.290008056640625,-0.0027488914784044027,0.027488915249705315,0.13041962683200836
1788093360291071200,4.3000712890625,0.02871064469218254,-0.009162971749901772,-0.029016077518463135
1788093360301134300,4.31013427734375,0.047952886670827866,-0.005803215317428112,-0.27550002932548523
1788093360311197400,4.320197509765625,0.09285144507884979,-0.11148282140493393,-0.1951712965965271
1788093360321260800,4.3302607421875,-0.01282816007733345,-0.07055488228797913,0.06414080411195755
1788093360371576600,4.38057666015625,-0.09285144507884979,0.0409279391169548,-0.014660755172371864
1788093360381639700,4.3906396484375,-0.09132428467273712,-0.035735588520765305,0.2929096519947052
1788093360391702800,4.400702880859375,-0.03451386094093323,-0.04886918142437935,0.3087921440601349
1788093360401766000,4.410765869140625,0.05070177838206291,-0.03390299528837204,0.02412915788590908
1788093360479033600,4.48803369140625,-0.02412915788590908,0.014049889519810677,0.16126830875873566
1788093360489099800,4.498099853515625,-0.021456625312566757,0.01824958436191082,0.10247256606817245
1788093360499188200,4.508188232421875,0.010690134018659592,0.018173227086663246,-0.18287764489650726
1788093360519338800,4.5283388671875,0.01626427471637726,-0.046196650713682175,-0.1406516134738922
1788093360529552600,4.538552734375,0.013897174037992954,-0.1432477980852127,0.2886336147785187
1788093360539766500,4.5487666015625,-0.01030834298580885,-0.06505709886550903,0.2430478185415268
1788093360549980400,4.55898046875,0.06505709886550903,-0.04940368980169296,-0.03428478538990021
1788093360560244500,4.569244384765625,0.029932374134659767,0.02306014485657215,-0.34406960010528564
1788093360580722700,4.58972265625,-0.08147408813238144,0.011377356946468353,0.09666935354471207
1788093360590922800,4.5999228515625,-0.057955797761678696,-0.05215258151292801,0.38438665866851807
1788093360601052700,4.610052734375,-0.026648975908756256,-0.022754713892936707,0.25121814012527466
1788093360611115800,4.62011572265625,0.040775224566459656,0.01183550525456667,-0.1291215419769287
1788093360621204200,4.630204345703125,0.004886918235570192,0.10499238222837448,-0.3044397234916687
1788093360641355000,4.65035498046875,0.030543239787220955,-0.07605266571044922,0.04825831577181816
1788093360651594000,4.660593994140625,-0.0027488914784044027,-0.058566659688949585,0.09170607477426529
1788093360661807900,4.670807861328125,-0.01511890348047018,-0.07635809481143951,0.06223184987902641
1788093360672072000,4.681072021484375,-0.02848157100379467,-0.00007635809743078426,0.025503603741526604
1788093360682260700,4.6912607421875,0.003665188793092966,0.05955931544303894,0.1343138962984085
1788093360702738700,4.71173876953125,0.07803797721862793,-0.009773836471140385,0.01763872057199478
1788093360713002800,4.722002685546875,0.06696604937314987,-0.010537417605519295,-0.30512696504592896
1788093360723216600,4.732216552734375,0.0965929925441742,-0.07528908550739288,-0.2219729870557785
1788093360733229000,4.74222900390625,-0.017562363296747208,-0.06352993845939636,-0.04764745384454727
1788093360743317000,4.75231689453125,-0.008781181648373604,-0.095982126891613,0.2690095901489258
1788093360753531000,4.76253076171875,-0.040546149015426636,-0.006719512399286032,0.12255474925041199
1788093360763795200,4.772795166015625,-0.017486004158854485,0.03329212963581085,-0.19188790023326874
1788093360784273200,4.793273193359375,-0.10056361556053162,0.03764454275369644,-0.1337793916463852
1788093360794487000,4.803487060546875,-0.11461350321769714,-0.008399390615522861,0.27947062253952026
1788093360804701000,4.813700927734375,-0.0487164668738842,-0.041004300117492676,0.4024835228919983
1788093360814892000,4.82389208984375,0.004581485874950886,-0.025503603741526604,0.12690715491771698
1788093360824959200,4.833959228515625,0.032681263983249664,-0.003359756199643016,-0.3480401933193207
1788093360845085700,4.854085693359375,0.017333287745714188,-0.012751801870763302,-0.16859868168830872
1788093360855149000,4.864149169921875,0.04436405375599861,-0.15760311484336853,0.020693045109510422
1788093360865312800,4.874312744140625,0.006490438245236874,-0.0758235901594162,0.09712749719619751
1788093360875425800,4.88442578125,-0.03352120518684387,-0.03894263133406639,0.07681624591350555
1788093360885438200,4.894438232421875,-0.05757400393486023,0.0487164668738842,0.13187043368816376
1788093360905916200,4.914916259765625,-0.09498947113752365,-0.011530072428286076,0.14347685873508453
1788093360916180500,4.925180419921875,-0.10980294644832611,0.01000291109085083,-0.18715369701385498
1788093360926394400,4.935394287109375,-0.07567087560892105,0.17890702188014984,-0.4329504072666168
1788093360936608300,4.945608154296875,-0.08239039033651352,0.06498073786497116,-0.24602578580379486
1788093360946864000,4.955864013671875,-0.18356487154960632,0.03565923124551773,0.13355031609535217
1788093360957038800,4.966038818359375,-0.1000291109085083,-0.027947064489126205,0.3715584874153137
1788093360977341200,4.986341064453125,-0.034208428114652634,-0.07406735420227051,-0.2047160565853119
1788093360987303200,4.99630322265625,0.03023780696094036,0.11782054603099823,-0.38652467727661133
1788093360997467000,5.006466796875,0.00954476185142994,0.12347104400396347,-0.09582941234111786
1788093361007680800,5.0166806640625,-0.007024944759905338,-0.16829325258731842,0.374765545129776
1788093361017894700,5.026894775390625,0.003512472379952669,-0.1769980639219284,0.4477638900279999
1788093361028158700,5.03715869140625,0.10201441496610641,-0.009086613543331623,0.08750637620687485
1788093361038397700,5.047397705078125,0.041157014667987823,0.010842849500477314,-0.3690386712551117
1788093361048636700,5.05763671875,-0.022754713892936707,-0.03909534588456154,-0.2562577724456787
1788093361058884900,5.067884765625,-0.14775292575359344,0.08544471114873886,-0.13988803327083588
1788093361068993000,5.077992919921875,-0.1253799945116043,0.08804088830947876,0.008933897130191326
1788093361079106600,5.0881064453125,-0.14477495849132538,0.19074252247810364,0.0758235901594162
1788093361089371000,5.098370849609375,-0.15630502998828888,0.03367391973733902,0.04650207981467247
1788093361099584500,5.10858447265625,-0.024052800610661507,0.049709122627973557,0.13362666964530945
1788093361109848800,5.118848876953125,0.06330086290836334,-0.0371863916516304,0.21540619432926178
1788093361119911700,5.12891162109375,0.06925679743289948,-0.24327689409255981,0.14049890637397766
1788093361130100500,5.1391005859375,0.12041672319173813,-0.1245400533080101,-0.2213621288537979
1788093361140238800,5.14923876953125,0.1634826809167862,0.07162389904260635,-0.4082867503166199
1788093361150352100,5.15935205078125,0.09590577334165573,-0.04604393243789673,-0.22243113815784454
1788093361170830000,5.179830078125,0.02107483521103859,-0.06146826967597008,0.4072940945625305
1788093361180946700,5.18994677734375,0.010690134018659592,-0.10567960888147354,0.22510367631912231
1788093361191160600,5.20016064453125,0.0027488914784044027,-0.039477135986089706,-0.26137375831604004
1788093361201223400,5.210223388671875,0.020387612283229828,0.17027856409549713,-0.47731447219848633
1788093361211286300,5.220286376953125,-0.03275762498378754,0.18028147518634796,-0.13874267041683197
1788093361221500000,5.2305,-0.07498364895582199,-0.09132428467273712,0.41905322670936584
1788093361231764200,5.24076416015625,-0.04276053607463837,-0.1464548259973526,0.4796815812587738
1788093361252242200,5.2612421875,-0.0016035200096666813,0.013439024798572063,-0.40080365538597107
1788093361262431000,5.271430908203125,-0.05429060757160187,-0.06207913160324097,-0.3171151876449585
1788093361272684500,5.2816845703125,-0.12576179206371307,-0.07223475724458694,-0.17424917221069336
1788093361282837500,5.29183740234375,-0.13469567894935608,-0.13927717506885529,0.06368265300989151
1788093361302964000,5.3119638671875,-0.21197007596492767,-0.10018182545900345,0.01779143698513508
1788093361313027300,5.32202734375,-0.18028147518634796,-0.18005239963531494,-0.0017562361899763346
1788093361323241200,5.3322412109375,-0.003894262947142124,-0.07116574794054031,0.10461059212684631
1788093361333253600,5.342253662109375,0.16294817626476288,0.07941242307424545,0.1011744812130928
1788093361343366700,5.35236669921875,0.18272492289543152,0.047494735568761826,-0.10506874322891235
1788093361353606000,5.36260595703125,0.15202897787094116,0.04802924394607544,-0.3340666890144348
1788093361363870000,5.372869873046875,0.15126539766788483,0.10354158282279968,-0.1446985900402069
1788093361374109000,5.38310888671875,0.011759147047996521,0.09185878932476044,0.10354158282279968
1788093361384348000,5.393347900390625,0.04780016839504242,0.028557928279042244,0.47174033522605896
1788093361394561800,5.403561767578125,-0.012980876490473747,0.08720094710588455,0.26251915097236633
1788093361404758300,5.41375830078125,0.03787361457943916,0.07009673118591309,-0.1285870373249054
1788093361414918400,5.42391845703125,-0.007635809946805239,0.1899789422750473,-0.4399753510951996
1788093361425006600,5.434006591796875,-0.05849030241370201,0.21723878383636475,-0.25442516803741455
1788093361435271000,5.44427099609375,-0.10743584483861923,0.10453423857688904,0.3124573230743408
1788093361445157400,5.454157470703125,-0.06627883017063141,0.04886918142437935,0.5374082922935486
1788093361455396400,5.464396240234375,-0.01183550525456667,0.10453423857688904,0.21143557131290436
1788093361465660400,5.474660400390625,-0.0423787422478199,0.03504836559295654,-0.24740023910999298
1788093361475874300,5.484874267578125,-0.10483966767787933,0.19272783398628235,-0.3416261374950409
1788093361486138600,5.495138671875,-0.06727148592472076,0.19585852324962616,-0.1329394429922104
1788093361496352500,5.5053525390625,-0.125074565410614,0.06795870512723923,0.09712749719619751
1788093361516809500,5.5258095703125,-0.09995274990797043,0.019853105768561363,0.051389001309871674
1788093361526872600,5.53587255859375,-0.05841394513845444,0.09705114364624023,-0.033368486911058426
1788093361536936000,5.54593603515625,-0.0006872228696011007,0.07826705276966095,0.0948367565870285
1788093361546999600,5.55599951171875,0.03894263133406639,-0.04886918142437935,0.23083053529262543
1788093361557063000,5.56606298828125,0.0386371985077858,-0.12171480804681778,0.10919208079576492
1788093361577365200,5.586365234375,0.027336198836565018,0.08040507882833481,-0.3775908052921295
1788093361587327200,5.5963271484375,0.03848448023200035,0.07719803601503372,-0.14569124579429626
1788093361597490700,5.60649072265625,-0.04260781779885292,0.028405211865901947,0.29817837476730347
1788093361607629000,5.616629150390625,-0.04169152304530144,-0.04520399495959282,0.44753479957580566
1788093361617742300,5.626742431640625,0.027030766010284424,-0.022754713892936707,0.19853104650974274
1788093361627981300,5.636981201171875,0.016646064817905426,-0.010537417605519295,-0.3151298761367798
1788093361648484600,5.657484619140625,-0.007024944759905338,-0.09292780607938766,-0.06330086290836334
1788093361658748700,5.667748779296875,0.03932442143559456,-0.14775292575359344,0.35391977429389954
1788093361668939800,5.677939697265625,0.13790272176265717,-0.08132137358188629,0.39225155115127563
1788093361679131000,5.688130859375,0.22663083672523499,-0.04321868345141411,0.04864010959863663
1788093361689344800,5.6983447265625,0.2320522516965866,-0.08926261961460114,-0.15302163362503052
1788093361709520600,5.718520751953125,0.22502730786800385,0.10140355676412582,0.1605810821056366
1788093361719583700,5.728583740234375,0.07047852128744125,-0.03535379841923714,0.15073087811470032
1788093361729772300,5.738772216796875,0.09827287495136261,-0.20112723112106323,0.009926552884280682
1788093361739910700,5.74891064453125,0.012293653562664986,-0.017944153398275375,-0.08559742569923401
1788093361750024000,5.75902392578125,-0.08231402933597565,0.07673988491296768,-0.08223766833543777
1788093361770502000,5.779501953125,-0.03810269013047218,0.004199695307761431,0.2695440948009491
1788093361780766500,5.789766357421875,-0.021380268037319183,0.1718057245016098,0.14477495849132538
1788093361790980400,5.79998046875,0.037720900028944016,0.125074565410614,-0.016187917441129684
1788093361801111600,5.810111572265625,0.037033677101135254,-0.034208428114652634,-0.3133736252784729
1788093361811162400,5.820162353515625,-0.004963276442140341,-0.05123628303408623,-0.2828303873538971
1788093361821250600,5.83025048828125,0.015347977168858051,-0.09330959618091583,-0.12354740500450134
1788093361841401300,5.8504013671875,-0.09407317638397217,-0.08177952468395233,0.1879936307668686
1788093361851640300,5.860640380859375,0.020311253145337105,0.09880737960338593,0.3983601927757263
1788093361861829000,5.8708291015625,0.0910952091217041,0.15057817101478577,-0.08429934084415436
1788093361872093400,5.881093505859375,0.06620246917009354,-0.00755945174023509,-0.226859912276268
1788093361882307600,5.8913076171875,0.03588830679655075,-0.09651663154363632,-0.2871828079223633
1788093361902785500,5.91178564453125,-0.15523600578308105,-0.05047270283102989,0.01718057133257389
1788093361913050000,5.922050048828125,-0.03214675933122635,-0.07559451460838318,0.2678641974925995
1788093361923264000,5.932263916015625,0.0038179049734026194,0.004810560029000044,0.07215840369462967
1788093361933276400,5.9422763671875,0.07559451460838318,-0.07124210149049759,-0.06910407543182373
1788093361943389400,5.952389404296875,0.07819069176912308,-0.06520981341600418,-0.14492766559123993
1788093361953628700,5.962628662109375,-0.114460788667202,-0.042913250625133514,-0.054443322122097015
1788093361963892700,5.972892822265625,-0.04604393243789673,-0.04932733252644539,0.10720676928758621
1788093361974131700,5.983131591796875,-0.05925388261675835,-0.04734202101826668,0.11064288020133972
1788093361984370700,5.99337060546875,0.043982263654470444,-0.07788526266813278,0.039477135986089706
1788093361994609700,6.003609619140625,0.131717711687088,-0.15691588819026947,-0.17737986147403717
1788093362004748000,6.013748046875,0.08972076326608658,-0.050549060106277466,0.16478078067302704
1788093362014845000,6.023844970703125,0.1089630052447319,-0.050930850207805634,0.14752385020256042
1788093362035072800,6.04407275390625,0.06551524996757507,-0.04787652567028999,-0.011759147047996521
1788093362045136100,6.05413623046875,0.04528035223484039,-0.00954476185142994,0.0576503649353981
1788093362055350000,6.06435009765625,0.13767364621162415,-0.12866339087486267,0.06589704006910324
1788093362065362200,6.074362060546875,-0.008933897130191326,0.01611155830323696,-0.18646647036075592
1788093362075475500,6.084475341796875,-0.005650499369949102,-0.05589412897825241,-0.1573740392923355
1788093362085739500,6.094739501953125,0.08155044913291931,-0.1164461001753807,0.3418551981449127
1788093362095953400,6.104953369140625,0.20715951919555664,-0.06887500733137131,0.24640758335590363
1788093362116481800,6.125481689453125,-0.010919207707047462,-0.012980876490473747,-0.2381609082221985
1788093362126670600,6.135670654296875,0.1372154951095581,-0.10392337292432785,0.32475098967552185
1788093362136867600,6.14586767578125,0.20242531597614288,0.033597562462091446,0.20540328323841095
1788093362147028200,6.1560283203125,-0.034208428114652634,0.064598947763443,-0.21616977453231812
1788093362157091600,6.166091552734375,-0.07353284955024719,-0.03779725730419159,-0.19036073982715607
1788093362177218300,6.18621826171875,0.26503896713256836,-0.041157014667987823,0.21029019355773926
1788093362187281700,6.19628173828125,-0.09552398324012756,-0.07750347256660461,-0.3426951467990875
1788093362197345300,6.20634521484375,-0.14133884012699127,-0.12316560745239258,-0.34872743487358093
1788093362207484000,6.21648388671875,0.13194678723812103,-0.33544111251831055,0.40523242950439453
1788093362217723100,6.22672314453125,0.2885572612285614,-0.06612611562013626,0.02916879393160343
1788093362227987200,6.2369873046875,-0.1346193253993988,-0.0345902182161808,-0.43631017208099365
1788093362248465700,6.257465576171875,0.057497646659612656,-0.28061601519584656,0.5639045238494873
1788093362258729700,6.267729736328125,0.13041962683200836,0.08032871782779694,0.03390299528837204
1788093362268943600,6.277943603515625,-0.2781725525856018,0.18310672044754028,-0.29367324709892273
1788093362279157500,6.288157470703125,-0.38217228651046753,-0.07368556410074234,-0.3133736252784729
1788093362289371400,6.298371337890625,-0.064598947763443,-0.17333288490772247,0.6471349000930786
1788093362309547300,6.31854736328125,-0.25579962134361267,0.24747659265995026,-0.32681265473365784
1788093362319610000,6.328610107421875,-0.2781725525856018,0.21548254787921906,-0.5528326034545898
1788093362329799000,6.338798828125,-0.007864884100854397,0.09796743839979172,0.7078395485877991
1788093362339937300,6.348937255859375,0.02672533318400383,0.17310380935668945,0.026801692321896553
1788093362360264400,6.369264404296875,-0.17142392694950104,-0.02107483521103859,-0.26740604639053345
1788093362370528500,6.379528564453125,0.15431971848011017,-0.11552979797124863,0.5072468519210815
1788093362380793000,6.38979296875,0.2618319094181061,0.23403756320476532,0.03825540840625763
1788093362391007000,6.400007080078125,0.02153298258781433,0.26160284876823425,-0.13095413148403168
1788093362401139700,6.4101396484375,-0.08811724185943604,-0.028099779039621353,-0.2176205813884735
1788093362411193000,6.420193115234375,0.23228132724761963,-0.10850485414266586,0.4314996004104614
1788093362421281300,6.43028125,0.2813032269477844,0.34261879324913025,0.0038179049734026194
1788093362441432000,6.45043212890625,-0.0031306820455938578,-0.1014799103140831,-0.020769402384757996
1788093362451671000,6.460671142578125,0.23441936075687408,-0.014431680552661419,0.3016144931316376
1788093362461885000,6.470885009765625,0.14362958073616028,0.33971717953681946,-0.11018473654985428
1788093362472149500,6.4811494140625,-0.0818558782339096,0.08597921580076218,-0.34345871210098267
1788093362482338300,6.49133837890625,-0.047952886670827866,-0.17600540816783905,0.1724165827035904
1788093362502816300,6.511816162109375,0.08063415437936783,0.3494910001754761,-0.2444986253976822
1788093362513080800,6.522080810546875,-0.08910989761352539,0.03527744114398956,-0.5489383339881897
1788093362523294700,6.532294677734375,-0.03176496922969818,-0.2023489624261856,0.08429934084415436
1788093362533307100,6.54230712890625,0.26969680190086365,0.018784092739224434,0.4237874448299408
1788093362543420200,6.552420166015625,-0.037720900028944016,0.3584249019622803,-0.258395791053772
1788093362553659400,6.562659423828125,-0.2144898921251297,0.05230529606342316,-0.36254823207855225
1788093362563923500,6.57292333984375,-0.09308052062988281,-0.07673988491296768,0.3451386094093323
1788093362584401400,6.5934013671875,-0.0732274129986763,0.3491092324256897,-0.07269290834665298
1788093362594665700,6.603665771484375,-0.1948658674955368,0.08689551800489426,-0.22243113815784454
1788093362604879400,6.61387939453125,0.03390299528837204,-0.03000873140990734,0.168904110789299
1788093362615034600,6.62403466796875,0.2570977210998535,0.16508620977401733,0.17715078592300415
1788093362625041700,6.634041748046875,0.09414953738451004,0.21861323714256287,-0.16081015765666962
1788093362635104800,6.644104736328125,0.02588539570569992,-0.11308634281158447,-0.2761108875274658
1788093362645344000,6.654343994140625,0.2306014597415924,-0.06528617441654205,0.4056142270565033
1788093362655608600,6.664608642578125,0.22090397775173187,0.2603047490119934,0.07857248187065125
1788093362665822500,6.674822509765625,-0.01107192412018776,0.11621702462434769,-0.34200790524482727
1788093362676086500,6.68508642578125,-0.1421024203300476,-0.10140355676412582,-0.29626941680908203
1788093362686300400,6.695300537109375,0.06406444311141968,-0.12217295914888382,0.3895026445388794
1788093362706778400,6.7157783203125,-0.12041672319173813,0.10797034949064255,-0.31581708788871765
1788093362716870400,6.725870361328125,-0.15111267566680908,-0.23388485610485077,-0.16478078067302704
1788093362726934300,6.735934326171875,0.2179260104894638,-0.0899498388171196,0.5785652995109558
1788093362737098000,6.746097900390625,0.1527925580739975,0.2856556475162506,-0.14943279325962067
1788093362747362600,6.756362548828125,-0.13072505593299866,0.02718348242342472,-0.458301305770874
1788093362757576400,6.766576416015625,-0.11117739230394363,-0.19509494304656982,0.09972367435693741
1788093362778054700,6.7870546875,0.060093823820352554,0.2756527364253998,0.050549060106277466
1788093362788268300,6.797268310546875,-0.1948658674955368,0.039018988609313965,-0.29710936546325684
1788093362798532900,6.807532958984375,-0.22411102056503296,-0.21510076522827148,0.10071633011102676
1788093362808746800,6.817746826171875,0.12759438157081604,-0.07643445581197739,0.38072147965431213
1788093362818986000,6.827986083984375,0.052076224237680435,0.14004075527191162,-0.15447242558002472
1788093362829250300,6.838250244140625,-0.11751510947942734,-0.39141160249710083,-0.39225155115127563
1788093362849728500,6.858728515625,0.22059854865074158,-0.10361793637275696,0.1297324001789093
1788093362859992800,6.868992919921875,-0.014049889519810677,-0.04276053607463837,-0.25350889563560486
1788093362870206500,6.87920654296875,-0.29161158204078674,-0.3635408878326416,-0.16592614352703094
1788093362880420400,6.88942041015625,-0.21868959069252014,-0.21265730261802673,0.5564978122711182
1788093362890592300,6.89959228515625,-0.17776164412498474,0.13011419773101807,0.2542724609375
1788093362910593000,6.919593017578125,-0.5445859432220459,-0.4495201110839844,-0.1101083755493164
1788093362920656000,6.92965576171875,-0.13301581144332886,-0.19272783398628235,0.6336958408355713
1788093362930719700,6.9397197265625,0.07628174126148224,0.06986765563488007,0.22105668485164642
1788093362940783000,6.949783203125,0.007177661173045635,-0.3065013885498047,-0.360868364572525
1788093362950846500,6.959846435546875,-0.15401428937911987,-0.6791289448738098,-0.48846274614334106
1788093362970974200,6.97997412109375,0.1712712198495865,0.022678354755043983,0.03581194952130318
1788093362981037600,6.99003759765625,-0.07376192510128021,-0.24717116355895996,-0.20341797173023224
1788093362991251500,7.00025146484375,-0.46906778216362,-0.3903425931930542,-0.10063996911048889
1788093363001490700,7.01049072265625,-0.3277289569377899,-0.10399972647428513,0.3640754222869873
1788093363011755000,7.020755126953125,-0.4263836145401001,0.23365578055381775,0.13629920780658722
1788093363021969000,7.030968994140625,-0.6457604169845581,-0.12118030339479446,-0.19364413619041443
1788093363032233200,7.041233154296875,-0.5745183229446411,-0.2864955961704254,0.14378230273723602
1788093363052711200,7.061711181640625,0.02871064469218254,-0.012217295356094837,-0.22953243553638458
1788093363062808800,7.071808837890625,-0.06795870512723923,-0.44379326701164246,-0.32650721073150635
1788093363072967200,7.08196728515625,0.020693045109510422,-0.34116798639297485,0.17631085216999054
1788093363083080200,7.092080078125,0.2729802131652832,0.16959133744239807,0.2764163017272949
1788093363093092600,7.102092529296875,0.02214384824037552,0.11209368705749512,-0.03497200831770897
1788093363113570800,7.12257080078125,-0.17447824776172638,-0.0974329337477684,0.36018115282058716
1788093363123784700,7.13278466796875,0.06101011857390404,0.2837466895580292,-0.0009162971982732415
1788093363134048800,7.143048828125,-0.03779725730419159,-0.08636100590229034,-0.3611738085746765
1788093363144262700,7.1532626953125,-0.17279838025569916,-0.5103775262832642,-0.23655737936496735
1788093363154519800,7.163519775390625,0.14164426922798157,-0.06444623321294785,0.5626064538955688
1788093363164722000,7.173721923828125,0.30222535133361816,0.47357290983200073,0.2864955961704254
1788093363184897800,7.193897705078125,-0.27084216475486755,-0.339869886636734,-0.1185077652335167
1788093363195112000,7.20411181640625,0.03321577236056328,0.004963276442140341,0.1856265366077423
1788093363205325800,7.214325927734375,0.050778135657310486,0.1995237022638321,-0.1453094631433487
1788093363215590100,7.224590087890625,-0.10239620506763458,-0.34238970279693604,-0.19593487679958344
1788093363225804000,7.234803955078125,-0.14317142963409424,-0.2726747691631317,0.07887791097164154
1788093363246282000,7.255281982421875,0.16859868168830872,0.20013457536697388,0.15752676129341125
1788093363266590000,7.27558984375,-0.03649916872382164,-0.2438877671957016,0.06956222653388977
1788093363276653000,7.285653076171875,0.19181154668331146,0.09132428467273712,-0.17837251722812653
1788093363286716400,7.29571630859375,0.03894263133406639,-0.11362084746360779,-0.23182319104671478
1788093363307044900,7.316044921875,-0.13507747650146484,-0.09201150387525558,0.626518189907074
1788093363316956400,7.325956298828125,0.18990258872509003,0.37988153100013733,0.31261005997657776
1788093363327170300,7.33617041015625,-0.028557928279042244,-0.43722647428512573,-0.13858994841575623
1788093363337435000,7.346434814453125,-0.3242928385734558,-0.7653372287750244,-0.4448622763156891
1788093363347648800,7.356648681640625,-0.007406735327094793,-0.3136027157306671,-0.19051344692707062
1788093363357837600,7.366837646484375,0.18730641901493073,0.18356487154960632,-0.1853974610567093
1788093363367900400,7.376900390625,-0.1398116797208786,-0.3623191714286804,-0.235793799161911
1788093363388378400,7.39737841796875,-0.03000873140990734,0.11514800786972046,0.5341249108314514
1788093363398628600,7.407628662109375,0.12736530601978302,0.17318016290664673,-0.12751802802085876
1788093363408737500,7.417737548828125,-0.20357069373130798,-0.47754353284835815,-0.4350120723247528
1788093363418801200,7.42780126953125,-0.39332056045532227,-0.39629852771759033,-0.23128867149353027
1788093363428864800,7.43786474609375,0.03252854943275452,0.22762349247932434,0.28153231739997864
1788093363448992000,7.457991943359375,-0.20463970303535461,-0.31146466732025146,0.03909534588456154
1788093363459055600,7.4680556640625,-0.1807396113872528,-0.2977202236652374,0.08231402933597565
1788093363469119000,7.478118896484375,0.28153231739997864,0.27664539217948914,0.12896881997585297
1788093363479257600,7.488257568359375,0.28580835461616516,0.2745073735713959,-0.10369429737329483
1788093363489421000,7.498421142578125,-0.09231694042682648,-0.010079269297420979,0.01282816007733345
1788093363499358000,7.50835791015625,-0.01779143698513508,0.16668972373008728,0.17081306874752045
1788093363509622300,7.518622314453125,0.23945899307727814,0.40836310386657715,-0.09636391699314117
1788093363519836200,7.528836181640625,-0.016875140368938446,-0.021456625312566757,-0.35040730237960815
1788093363530100500,7.5391005859375,-0.20517420768737793,-0.2032652497291565,-0.09346231073141098
1788093363540314400,7.549314453125,0.16760602593421936,0.3180314898490906,0.4171442985534668
1788093363550528300,7.5595283203125,0.4482220411300659,0.5524508357048035,0.039477135986089706
1788093363571006500,7.58000634765625,-0.033139415085315704,-0.010690134018659592,-0.05261072888970375
1788093363581076500,7.590076416015625,0.32444554567337036,0.16959133744239807,-0.030925029888749123
1788093363591290000,7.6002900390625,0.41004297137260437,0.37988153100013733,-0.4257727563381195
1788093363601529300,7.610529296875,0.21525347232818604,0.10842850059270859,-0.08307760953903198
1788093363611793700,7.620793701171875,0.06131555140018463,0.015271619893610477,0.11339177191257477
1788093363622007800,7.6310078125,0.5758163928985596,0.5312232971191406,0.3079521954059601
1788093363632272000,7.64127197265625,0.5033525824546814,0.528932511806488,-0.11110103130340576
1788093363652749800,7.661749755859375,0.20502148568630219,0.22769984602928162,0.2767980992794037
1788093363662964000,7.6719638671875,0.5375609993934631,0.5703949928283691,-0.21861323714256287
1788093363673228300,7.682228271484375,0.32391104102134705,0.29374960064888,-0.28496840596199036
1788093363683442400,7.6924423828125,0.08781181275844574,-0.008857538923621178,-0.24976733326911926
1788093363693656300,7.70265625,0.4580722153186798,0.4817432463169098,0.4815141558647156
1788093363703920400,7.71292041015625,0.673249363899231,0.7948877811431885,-0.1802051067352295
1788093363724398800,7.73339892578125,-0.04482220485806465,0.03252854943275452,-0.25213444232940674
1788093363734537700,7.743537841796875,0.28664830327033997,0.23029601573944092,0.06795870512723923
1788093363744710000,7.7537099609375,0.5984184145927429,0.5790234804153442,-0.3811032772064209
1788093363754974200,7.76397412109375,0.17951788008213043,0.35735589265823364,0.04390590637922287
1788093363765188400,7.774188232421875,-0.09323323518037796,0.1104138121008873,0.1378263682126999
1788093363785666300,7.794666259765625,0.6470585465431213,0.4156934916973114,-0.3551415205001831
1788093363795931000,7.804930908203125,0.33001968264579773,0.22701261937618256,-0.28557929396629333
1788093363806144800,7.815144775390625,-0.043753188103437424,0.125074565410614,-0.04864010959863663
1788093363816310800,7.825310791015625,0.10583232343196869,0.1444695144891739,-0.14622575044631958
1788093363826376400,7.83537646484375,0.31719154119491577,0.1573740392923355,-0.2047160565853119
1788093363846503700,7.855503662109375,-0.028787001967430115,0.22319471836090088,0.20158538222312927
1788093363856567000,7.865567138671875,0.15370884537696838,0.5328267812728882,0.08758273720741272
1788093363866630700,7.875630615234375,0.10186170041561127,0.231212317943573,-0.12606722116470337
1788093363876694000,7.885694091796875,-0.104076087474823,0.051618073135614395,-0.10957387089729309
1788093363886757400,7.89575732421875,0.0005345066892914474,0.425009161233902,0.26358816027641296
1788093363907085800,7.9160859375,0.2170860767364502,0.22350014746189117,-0.23571744561195374
1788093363916997400,7.925997314453125,0.09101885557174683,0.03840812295675278,-0.044440411031246185
1788093363927211300,7.936211181640625,0.41523534059524536,0.510606586933136,0.32528549432754517
1788093363937475800,7.946475830078125,0.4082867503166199,0.4953349828720093,-0.10231985151767731
1788093363947689700,7.956689697265625,0.19814926385879517,0.024663666263222694,-0.3001636862754822
1788093363957878500,7.96687841796875,-0.00603228947147727,0.017867794260382652,0.16226094961166382
1788093363978205700,7.987205810546875,0.3061196208000183,0.521831214427948,0.012675444595515728
1788093363988268500,7.9972685546875,0.10705405473709106,0.07116574794054031,-0.17676898837089539
1788093363998457000,8.00745703125,-0.16325360536575317,0.03252854943275452,-0.13446660339832306
1788093364008664600,8.01766455078125,-0.024205517023801804,0.3283398151397705,0.23403756320476532
1788093364018843000,8.0278427734375,0.13362666964530945,0.37140578031539917,0.12202023714780807
1788093364028931600,8.037931640625,0.0204639695584774,0.0015271619195118546,-0.3180314898490906
1788093364049082400,8.058082275390625,0.16081015765666962,0.3110828995704651,0.1219438835978508
1788093364059321300,8.0683212890625,0.114460788667202,0.1937204897403717,-0.2228129357099533
1788093364069585400,8.07858544921875,-0.10461059212684631,-0.1735619604587555,-0.18234314024448395
1788093364079799300,8.08879931640625,-0.10277800261974335,0.10285435616970062,0.2254091054201126
1788093364090063600,8.099063720703125,0.13484840095043182,0.4407389461994171,0.17043127119541168
1788093364110516500,8.1195166015625,-0.2063959389925003,-0.1389717310667038,-0.13973531126976013
1788093364120579300,8.129579345703124,-0.11537708342075348,0.14996729791164398,0.6036871075630188
1788093364130793200,8.139793212890625,0.3047451674938202,0.6082686185836792,0.1369100660085678
1788093364140931600,8.149931640625,0.20395247638225555,0.056810423731803894,-0.1727220118045807
1788093364150978000,8.15997802734375,-0.017486004158854485,-0.18730641901493073,-0.34574946761131287
1788093364171055400,8.180055419921874,0.19051344692707062,0.5422952175140381,0.13729186356067657
1788093364181119000,8.190118896484375,0.06612611562013626,0.04039343446493149,-0.31604617834091187
1788093364191332900,8.200332763671875,-0.26129740476608276,-0.3447568118572235,-0.1977674663066864
1788093364201572000,8.210572021484374,-0.3480401933193207,-0.011682788841426373,0.17020219564437866
1788093364211836400,8.22083642578125,0.031230462715029716,0.45501789450645447,0.27855435013771057
1788093364222050300,8.23105029296875,-0.021838415414094925,0.017104214057326317,-0.018784092739224434
1788093364232314600,8.241314697265626,-0.35239261388778687,-0.349185585975647,-0.21639885008335114
1788093364252792600,8.26179248046875,-0.16126830875873566,0.33505934476852417,0.10888664424419403
1788093364262891300,8.271891357421875,-0.18196134269237518,-0.3310123383998871,-0.09636391699314117
1788093364273049900,8.2820498046875,-0.1706603467464447,-0.2211330533027649,0.07819069176912308
1788093364283163000,8.292162841796875,0.11950042098760605,0.22350014746189117,0.06230820715427399
1788093364293175300,8.30217529296875,-0.050778135657310486,-0.029856016859412193,-0.27053675055503845
1788093364313653500,8.322653564453125,-0.16714787483215332,-0.07475458085536957,0.46624255180358887
1788093364323716400,8.33271630859375,0.1242346242070198,0.324063777923584,-0.10224349051713943
1788093364333905000,8.34290478515625,-0.07307469844818115,-0.13538290560245514,-0.3846157491207123
1788093364344118800,8.353118896484375,-0.399887353181839,-0.4915170669555664,0.0769689604640007
1788093364354383000,8.363383056640625,-0.2231183648109436,0.17340923845767975,0.6787471175193787
1788093364364597200,8.37359716796875,-0.026343543082475662,0.47555822134017944,0.02458730712532997
1788093364384912100,8.393912109375,-0.45097091794013977,-0.38209593296051025,-0.017715077847242355
1788093364394971400,8.403971435546875,-0.2409861534833908,0.0193185992538929,0.3027598559856415
1788093364405135000,8.414135009765625,0.18463388085365295,0.39507678151130676,0.03413207083940506
1788093364415248100,8.424248046875,0.1372154951095581,-0.12843431532382965,0.10125083476305008
1788093364425260500,8.434260498046875,-0.1579848974943161,-0.5386300086975098,-0.3875173330307007
1788093364445713400,8.45471337890625,0.26618432998657227,0.3862192630767822,0.22594361007213593
1788093364455978000,8.46497802734375,-0.13775001466274261,-0.21135921776294708,-0.08109229803085327
1788093364466192000,8.47519189453125,-0.5536725521087646,-0.4514290690422058,-0.3102429509162903
1788093364476330200,8.485330322265625,-0.1824958473443985,0.036422811448574066,0.28412848711013794
1788093364486443500,8.495443603515625,0.01954767294228077,0.297872930765152,-0.034895651042461395
1788093364506720300,8.51572021484375,-0.40294167399406433,-0.36949682235717773,-0.07673988491296768
1788093364516959200,8.525959228515624,-0.11629338562488556,0.025274530053138733,0.14393500983715057
1788093364527053600,8.536053466796876,0.1591302752494812,0.22640176117420197,0.09636391699314117
1788093364537120800,8.546120849609375,-0.04825831577181816,-0.1510363221168518,0.021227551624178886
1788093364547259400,8.55625927734375,-0.33368489146232605,-0.16485713422298431,-0.18570289015769958
1788093364567385000,8.576385009765625,0.03504836559295654,0.09819651395082474,0.17737986147403717
1788093364587863600,8.596863525390624,-0.20364704728126526,-0.08315397053956985,-0.14508038759231567
1788093364598127600,8.607127685546875,0.036193739622831345,0.025121813639998436,0.18959715962409973
1788093364608341500,8.617341552734375,0.06933315098285675,0.056428633630275726,-0.0836121141910553
1788093364618605600,8.62760546875,-0.11094831675291061,-0.15294526517391205,-0.26794055104255676
1788093364628819500,8.6378193359375,-0.13271036744117737,-0.16226094961166382,0.050930850207805634
1788093364649079000,8.6580791015625,-0.05123628303408623,0.1608865112066269,0.268627792596817
1788093364659293000,8.66829296875,-0.18860450387001038,-0.09651663154363632,0.033826638013124466
1788093364669532000,8.678531982421875,-0.08743002265691757,0.04886918142437935,0.01588248461484909
1788093364679645200,8.688645263671875,0.16065743565559387,0.24747659265995026,0.2585485279560089
1788093364689657600,8.69865771484375,0.04039343446493149,0.16325360536575317,-0.08200860023498535
1788093364710135600,8.719135498046874,0.07246383279561996,-0.027107125148177147,-0.0015271619195118546
1788093364720349400,8.729349365234375,0.21441353857517242,0.168675035238266,0.03481929376721382
1788093364730614000,8.739614013671876,0.06963858753442764,0.004428769461810589,-0.12576179206371307
1788093364740819000,8.74981884765625,0.017027854919433594,-0.02977965772151947,0.055741410702466965
1788093364750973700,8.7599736328125,0.02390008419752121,0.04169152304530144,-0.17027856409549713
1788093364771101000,8.780100830078124,-0.10728313028812408,0.020387612283229828,0.05329795181751251
1788093364781164800,8.790164794921875,-0.19570580124855042,0.015347977168858051,0.021609341725707054
1788093364791378700,8.800378662109376,0.02260199747979641,0.24755294620990753,0.33773186802864075
1788093364801617700,8.81061767578125,0.0032070400193333626,0.24022257328033447,0.10483966767787933
1788093364811882000,8.820882080078125,-0.031154103577136993,0.16218459606170654,0.13156500458717346
1788093364822096100,8.83109619140625,0.11278090626001358,0.19158247113227844,0.12202023714780807
1788093364832360200,8.841360107421876,0.10751219838857651,0.13614648580551147,-0.1204930767416954
1788093364852838400,8.86183837890625,0.04306596517562866,0.010690134018659592,0.00847574882209301
1788093364862937000,8.87193701171875,0.031230462715029716,0.02932151034474373,-0.14286600053310394
1788093364873096000,8.882095947265626,0.095982126891613,0.2966512143611908,0.18990258872509003
1788093364883209000,8.892208984375,-0.17982332408428192,0.03520108386874199,-0.1905898153781891
1788093364893221600,8.9022216796875,-0.16539163887500763,-0.040775224566459656,-0.08147408813238144
1788093364913699600,8.922699462890625,-0.07948877662420273,0.06612611562013626,0.03543015569448471
1788093364923762400,8.932762451171875,0.03321577236056328,0.13164135813713074,0.2507599890232086
1788093364933951200,8.942951171875,-0.015806125476956367,0.17821979522705078,-0.05925388261675835
1788093364944165000,8.9531650390625,-0.06436987966299057,0.2580140233039856,0.07918334752321243
1788093364954429400,8.963429443359376,-0.08834631741046906,0.10690133273601532,0.24510949850082397
1788093364964643300,8.973643310546874,0.000305432389723137,0.27809619903564453,-0.0962875634431839
1788093364984958700,8.993958740234374,0.1328630894422531,0.08429934084415436,-0.13477204740047455
1788093364995018200,9.004018310546876,-0.043142326176166534,0.08170316368341446,-0.23564109206199646
1788093365005182000,9.014181884765625,-0.007483093533664942,-0.04169152304530144,0.00679587060585618
1788093365015295000,9.024294921875,0.08193223923444748,0.10224349051713943,0.07528908550739288
1788093365025307600,9.0343076171875,0.01847865991294384,0.10697769373655319,-0.09896009415388107
1788093365045760500,9.054760498046875,-0.22548545897006989,0.25992295145988464,-0.24671301245689392
1788093365056024800,9.06502490234375,-0.2138790339231491,-0.13500112295150757,0.2683223485946655
1788093365066239000,9.075239013671874,0.15645773708820343,0.20051635801792145,0.2098320573568344
1788093365076377300,9.08537744140625,0.12263110280036926,0.27168211340904236,-0.06750056147575378
1788093365086490400,9.095490478515625,0.08842267841100693,0.09567669779062271,-0.10804671049118042
1788093365096704300,9.105704345703124,-0.0423787422478199,0.09361502528190613,-0.23373213410377502
1788093365106767400,9.115767333984374,0.0746782198548317,-0.06536252796649933,0.12102758139371872
1788093365117006300,9.12600634765625,0.20914483070373535,0.3477347791194916,0.047723811119794846
1788093365127101000,9.136100830078124,0.07483093440532684,0.15118902921676636,0.10086904466152191
1788093365137168100,9.146168212890625,0.16905683279037476,0.2608392536640167,0.1715002804994583
1788093365147307000,9.15630712890625,0.06223184987902641,0.4091266989707947,-0.14309507608413696
1788093365167432400,9.176432373046875,0.14362958073616028,0.25557056069374084,-0.01954767294228077
1788093365187911400,9.196911376953125,0.1127045527100563,0.036422811448574066,-0.20647229254245758
1788093365198175500,9.207175537109375,0.050549060106277466,0.16974404454231262,-0.060781046748161316
1788093365208389400,9.217389404296876,0.131717711687088,0.14706569910049438,0.23396120965480804
1788093365218653400,9.2276533203125,0.11117739230394363,0.3545306324958801,-0.043829549103975296
1788093365228867300,9.237867431640625,-0.05192350596189499,-0.038789913058280945,-0.04001164436340332
1788093365249127000,9.258126953125,-0.23854269087314606,0.09636391699314117,-0.040775224566459656
1788093365259340800,9.2683408203125,-0.09330959618091583,-0.1092684343457222,0.06811141967773438
1788093365269353200,9.278353271484375,0.019242240116000175,0.10850485414266586,-0.12415826320648193
1788093365279466200,9.28846630859375,0.06520981341600418,0.006719512399286032,0.116751529276371
1788093365289730600,9.29873046875,-0.0154243353754282,0.3079521954059601,-0.1251509189605713
1788093365299919000,9.308919189453125,-0.07024945318698883,-0.10392337292432785,-0.006337722297757864
1788093365310183400,9.319183349609375,0.015042545273900032,0.13858994841575623,-0.1190422773361206
1788093365320422400,9.32942236328125,-0.08078686892986298,0.012370011769235134,-0.07330377399921417
1788093365330686500,9.3396865234375,-0.029245151206851006,-0.07971785217523575,0.18287764489650726
1788093365340879400,9.34987939453125,-0.035124726593494415,0.18066325783729553,-0.15844304859638214
1788093365351097300,9.360097412109376,-0.08109229803085327,-0.05612320080399513,-0.17508912086486816
1788093365361311200,9.370311279296875,-0.2830594778060913,0.005268708802759647,-0.301003634929657
1788093365371575600,9.380575439453125,-0.3969857394695282,-0.15584687888622284,0.029474224895238876
1788093365392054300,9.40105419921875,-0.1521816849708557,0.06856957077980042,0.12431098520755768
1788093365402268200,9.41126806640625,0.04512763395905495,-0.028176138177514076,0.15783219039440155
1788093365412532700,9.42153271484375,0.02916879393160343,0.2021198868751526,-0.09964732080698013
1788093365422685200,9.431685302734374,0.026801692321896553,0.0015271619195118546,-0.12606722116470337
1788093365432790000,9.4417900390625,0.02718348242342472,0.08941533416509628,-0.19387321174144745
1788093365443054000,9.45205419921875,-0.06856957077980042,0.022220205515623093,0.08727730810642242
1788093365453319200,9.462319091796875,-0.07849612087011337,0.15836669504642487,0.019624030217528343
1788093365463533000,9.472532958984376,-0.14286600053310394,-0.034895651042461395,0.2144898921251297
1788093365473797000,9.482797119140624,-0.0513126403093338,0.18180863559246063,0.09384410083293915
1788093365484011000,9.493010986328125,-0.13629920780658722,0.07887791097164154,0.07872519642114639
1788093365494225000,9.503224853515626,-0.07429642975330353,0.12499820441007614,0.017486004158854485
1788093365504467700,9.5134677734375,-0.12698352336883545,0.03733910992741585,-0.06154462695121765
1788093365514557700,9.5235576171875,0.023518294095993042,-0.06223184987902641,0.13209950923919678
1788093365524621600,9.53362158203125,0.0345902182161808,0.2637408673763275,-0.19929464161396027
1788093365534685200,9.543685302734374,-0.07620538026094437,-0.14317142963409424,0.131717711687088
1788093365544748500,9.55374853515625,-0.06895136088132858,0.21410810947418213,-0.01259908638894558
1788093365554812000,9.56381201171875,-0.19303326308727264,-0.07078395783901215,0.10697769373655319
1788093365574940200,9.583940185546876,-0.29703301191329956,-0.003665188793092966,-0.061391908675432205
1788093365585004000,9.594004150390624,-0.11346813291311264,-0.07017309218645096,-0.044669486582279205
1788093365595068000,9.60406787109375,-0.07139482349157333,-0.015042545273900032,-0.08460476994514465
1788093365605231600,9.614231689453124,-0.026572618633508682,0.01695149764418602,0.15470150113105774
1788093365615344600,9.6243447265625,-0.11873684078454971,0.12270746380090714,0.02328922040760517
1788093365625357300,9.634357421875,-0.05742128938436508,-0.056199558079242706,0.1533270627260208
1788093365645835300,9.654835205078125,-0.1043815165758133,-0.15722131729125977,-0.20112723112106323
1788093365656099300,9.665099365234376,-0.2732856273651123,-0.13095413148403168,-0.22876885533332825
1788093365666313200,9.675313232421875,-0.27947062253952026,-0.12186752259731293,0.18791727721691132
1788093365676451600,9.68545166015625,-0.26710063219070435,-0.004886918235570192,0.4353938698768616
1788093365686564900,9.69556494140625,-0.1911243200302124,0.1029307171702385,0.04405862092971802
1788093365706841600,9.715841552734375,-0.03940077871084213,0.024434590712189674,-0.15409064292907715
1788093365717067500,9.726067626953125,-0.08139773458242416,-0.08743002265691757,0.04367683082818985
1788093365727154400,9.736154541015624,-0.03367391973733902,0.07803797721862793,0.09193515032529831
1788093365737218300,9.74621826171875,-0.04039343446493149,0.1130099818110466,0.31009024381637573
1788093365747357200,9.756357177734374,-0.025503603741526604,0.2260199636220932,0.04321868345141411
1788093365767483000,9.77648291015625,-0.15668681263923645,-0.21807873249053955,-0.38522660732269287
1788093365787961600,9.796961669921876,-0.26450446248054504,-0.1755472719669342,-0.0628427118062973
1788093365798225700,9.8072255859375,-0.1847866028547287,-0.1905898153781891,0.523892879486084
1788093365808439600,9.817439453125,-0.04764745384454727,0.22594361007213593,0.2995528280735016
1788093365818628400,9.82762841796875,-0.0694858655333519,0.05673406645655632,0.025045456364750862
1788093365828890000,9.83789013671875,0.05604684352874756,-0.09422589093446732,-0.14431680738925934
1788093365849177600,9.858177490234375,-0.07498364895582199,-0.19982914626598358,-0.23976442217826843
1788093365859241500,9.868241455078126,-0.02977965772151947,-0.1328630894422531,0.14485131204128265
1788093365869305300,9.878305419921874,-0.1594357043504715,-0.0487164668738842,0.083306685090065
1788093365879444000,9.88844384765625,-0.10903936624526978,-0.09903645515441895,-0.07162389904260635
1788093365889607400,9.898607421875,-0.22434009611606598,-0.06872228533029556,-0.004352411720901728
1788093365909808600,9.91880859375,-0.16913318634033203,-0.14813470840454102,0.08674279600381851
1788093365920073500,9.929073486328125,-0.06811141967773438,-0.03955349326133728,0.08758273720741272
1788093365930287400,9.939287353515626,0.040775224566459656,0.05871937796473503,0.19097159802913666
1788093365940501200,9.949501220703125,0.050549060106277466,-0.05177079141139984,-0.17287473380565643
1788093365950765800,9.959765869140625,-0.05566505342721939,0.08979712426662445,-0.2723693251609802
1788093365960980200,9.969980224609374,-0.07330377399921417,-0.18577924370765686,-0.30169084668159485
1788093365971244300,9.980244384765625,-0.1922696828842163,-0.22464552521705627,0.06475166976451874
1788093365991328300,10.000328369140625,-0.15378521382808685,-0.05612320080399513,0.2945895493030548
1788093366001391900,10.010391845703126,-0.0423787422478199,0.0007635809597559273,0.02825249545276165
1788093366011456000,10.0204560546875,0.08437569439411163,0.12644900381565094,0.14019346237182617
1788093366021519400,10.030519287109374,0.1726456582546234,0.14347685873508453,-0.05673406645655632
1788093366041646300,10.050646240234375,0.03993528336286545,-0.049250971525907516,-0.20135630667209625
1788093366051710700,10.060710693359376,-0.09750928729772568,0.025961752980947495,0.08429934084415436
1788093366061875000,10.070875,-0.05971203371882439,0.08025235682725906,0.17997603118419647
1788093366071988000,10.080988037109375,-0.020998476073145866,-0.0487164668738842,0.1011744812130928
1788093366082000400,10.09100048828125,-0.02779434807598591,-0.017867794260382652,-0.1879936307668686
1788093366102478600,10.111478515625,-0.021456625312566757,-0.03428478538990021,0.047036588191986084
1788093366112743400,10.121743408203125,0.08872810751199722,0.11384992301464081,0.07887791097164154
1788093366122957300,10.131957275390626,0.12774710357189178,-0.16355904936790466,-0.14920371770858765
1788093366133171200,10.142171142578125,0.07864884287118912,-0.07086031138896942,-0.22319471836090088
1788093366143385000,10.152385009765625,0.03535379841923714,0.014278964139521122,-0.06352993845939636
1788093366153601000,10.16260107421875,0.009392046369612217,-0.15561780333518982,0.10850485414266586
1788093366173934800,10.182934814453125,0.021991131827235222,0.19982914626598358,0.2315177470445633
1788093366184173800,10.193173828125,-0.007101302966475487,0.13469567894935608,0.19326233863830566
1788093366194438700,10.203438720703126,0.011300998739898205,-0.025350889191031456,-0.17737986147403717
1788093366204652800,10.21365283203125,0.20746494829654694,-0.2280052751302719,-0.33452481031417847
1788093366214866700,10.22386669921875,0.12805253267288208,0.019242240116000175,-0.027947064489126205
1788093366225131000,10.234131103515624,0.11728604137897491,0.026878049597144127,0.22983787953853607
1788093366245609500,10.254609375,0.0006872228696011007,0.07788526266813278,-0.21265730261802673
1788093366255527400,10.26452734375,-0.1608865112066269,-0.2271653413772583,-0.2749654948711395
1788093366265566700,10.274566650390625,-0.2450331300497055,-0.2961167097091675,-0.02893971838057041
1788093366275630000,10.284630126953125,-0.2657261788845062,0.10972658544778824,0.19784383475780487
1788093366285693400,10.294693359375,-0.09544762223958969,0.06757691502571106,0.43111783266067505
1788093366295758000,10.304758056640624,-0.016875140368938446,0.15554144978523254,-0.05849030241370201
1788093366315885600,10.324885498046875,0.060933761298656464,-0.08933897316455841,-0.5025126338005066
1788093366325949400,10.334949462890625,0.10323614627122879,-0.13820815086364746,-0.09414953738451004
1788093366336013600,10.345013671875,-0.02871064469218254,-0.30512696504592896,-0.037491824477910995
1788093366346127000,10.355127197265626,0.05940660089254379,-0.03756818547844887,0.30169084668159485
1788093366366630400,10.37563037109375,-0.009850194677710533,0.2190713882446289,0.45333802700042725
1788093366376895500,10.3858955078125,-0.11476621776819229,0.2438877671957016,-0.07231111824512482
1788093366387109400,10.396109375,-0.014737112447619438,0.08826996386051178,0.10644318908452988
1788093366397373400,10.40637353515625,-0.11003202199935913,-0.03222311660647392,-0.19120067358016968
1788093366407587300,10.41658740234375,-0.15294526517391205,-0.003970621153712273,-0.24228423833847046
1788093366417801200,10.42680126953125,-0.07689260691404343,-0.19501857459545135,-0.053985174745321274
1788093366428065500,10.4370654296875,-0.027259841561317444,-0.1646280586719513,0.01000291109085083
1788093366448544300,10.457544189453126,0.08643736690282822,-0.06101011857390404,0.009392046369612217
1788093366458758100,10.467758056640625,0.029016077518463135,-0.0027488914784044027,-0.1190422773361206
1788093366469022700,10.478022705078125,0.014278964139521122,0.030390523374080658,-0.070631243288517
1788093366479236900,10.48823681640625,0.015500693581998348,0.07185296714305878,0.040546149015426636
1788093366489460000,10.4984599609375,0.004123337101191282,0.019471315667033195,0.08338304609060287
1788093366499550000,10.508550048828125,0.054672397673130035,-0.04192059487104416,0.11217004805803299
1788093366520079400,10.529079345703124,-0.0397825688123703,0.0030543238390237093,0.15431971848011017
1788093366530293200,10.539293212890625,-0.03917170315980911,-0.14859285950660706,-0.03298669680953026
1788093366540507000,10.5495068359375,-0.10705405473709106,0.05787943676114082,-0.08681915700435638
1788093366550771500,10.559771484375,0.016035201027989388,-0.07475458085536957,0.23732095956802368
1788093366560985900,10.56998583984375,0.04176788032054901,0.038560837507247925,0.13645191490650177
1788093366581318700,10.590318603515625,0.08483384549617767,-0.09101885557174683,-0.23273947834968567
1788093366591382500,10.600382568359375,-0.005574141163378954,-0.09048434346914291,-0.03581194952130318
1788093366601446400,10.6104462890625,-0.19753839075565338,-0.15515965223312378,-0.07307469844818115
1788093366611510500,10.620510498046874,-0.22853977978229523,-0.06971494108438492,0.13881902396678925
1788093366621574000,10.630573974609375,-0.19646938145160675,0.01824958436191082,0.15958842635154724
1788093366641700900,10.650700927734375,0.012217295356094837,0.019394956529140472,-0.2704603672027588
1788093366651765200,10.66076513671875,0.030314164236187935,-0.15813761949539185,-0.22189663350582123
1788093366661929500,10.670929443359375,0.005803215317428112,-0.2049451321363449,-0.04886918142437935
1788093366682055000,10.691054931640625,0.05238165333867073,-0.18112140893936157,-0.05169443041086197
1788093366692319200,10.7013193359375,-0.11423171311616898,-0.15256348252296448,-0.16829325258731842
1788093366712798000,10.7217978515625,-0.09201150387525558,-0.03962985426187515,0.1383608728647232
1788093366723011800,10.73201171875,-0.016340631991624832,-0.12209659814834595,-0.07712167501449585
1788093366733276400,10.7422763671875,0.17402009665966034,-0.07383827865123749,-0.09178243577480316
1788093366743490600,10.752490478515625,0.2257145345211029,0.07704532146453857,0.19532401859760284
1788093366753694000,10.76269384765625,0.1443931609392166,0.15034909546375275,0.21861323714256287
1788093366773789400,10.78278955078125,-0.18974986672401428,0.1498909443616867,0.06360629200935364
1788093366783853300,10.792853271484375,-0.17768529057502747,-0.11377356201410294,-0.10468695312738419
1788093366793917200,10.802917236328126,-0.0977383628487587,-0.22846342623233795,-0.11552979797124863
1788093366803980800,10.812980712890624,-0.053756099194288254,-0.008399390615522861,-0.1588248461484909
1788093366814044700,10.823044677734375,0.05306887626647949,-0.08261945843696594,0.05497783049941063
1788093366824108800,10.83310888671875,0.12637265026569366,-0.0720820426940918,-0.06604975461959839
1788093366834172400,10.84317236328125,0.24740023910999298,-0.10186170041561127,-0.0769689604640007
1788093366844411400,10.853411376953124,0.12980876863002777,-0.10193806141614914,-0.10987929999828339
1788093366854373400,10.863373291015625,0.00954476185142994,0.06704241037368774,0.18325942754745483
1788093366864512000,10.873511962890625,-0.050090912729501724,-0.023212861269712448,0.027107125148177147
1788093366874675500,10.883675537109376,-0.1081230640411377,-0.00007635809743078426,-0.12789981067180634
1788093366884788700,10.893788818359376,-0.11094831675291061,-0.00007635809743078426,0.010995565913617611
1788093366905090600,10.914090576171875,0.016035201027989388,0.0821613147854805,0.001221729558892548
1788093366915304400,10.924304443359375,0.061850059777498245,-0.12576179206371307,0.04230238497257233
1788093366925518300,10.934518310546874,-0.012446369975805283,-0.09521854668855667,-0.07185296714305878
1788093366935783000,10.944782958984375,0.09017891436815262,0.06223184987902641,-0.021380268037319183
1788093366945997000,10.9549970703125,0.08315397053956985,-0.16363540291786194,-0.12446369975805283
1788093366966265600,10.975265625,-0.017256930470466614,-0.12560907006263733,-0.029397867619991302
1788093366976324400,10.985324462890626,-0.04276053607463837,-0.0550541877746582,0.15867212414741516
1788093366986513200,10.99551318359375,-0.02153298258781433,0.06780599057674408,0.2700785994529724
1788093366996576000,11.005575927734375,-0.01626427471637726,0.018631376326084137,0.003665188793092966
1788093367006638800,11.015638916015625,-0.0038179049734026194,0.05253437161445618,-0.17493639886379242
1788093367027091700,11.036091796875,0.08025235682725906,0.0032070400193333626,0.29588761925697327
1788093367037356500,11.0463564453125,0.05253437161445618,0.23449571430683136,-0.05367974191904068
1788093367047570400,11.0565703125,0.020769402384757996,-0.11430807411670685,-0.40370526909828186
1788093367057784300,11.066784423828125,-0.025732679292559624,-0.2559523284435272,-0.2822195291519165
1788093367068049000,11.077048828125,-0.06696604937314987,-0.12621992826461792,-0.2283107042312622
1788093367078215200,11.087215087890625,-0.029397867619991302,-0.1602756530046463,0.129426971077919
1788093367098348800,11.107348876953125,-0.023823726922273636,0.054443322122097015,0.19379685819149017
1788093367108412200,11.117412109375,0.08842267841100693,0.20479241013526917,0.21326816082000732
1788093367118476300,11.127476318359374,0.04283689334988594,0.014966187067329884,-0.2594648003578186
1788093367128640300,11.13764013671875,0.19509494304656982,0.0038179049734026194,0.1078176349401474
1788093367138803700,11.1478037109375,0.17944152653217316,0.21067199110984802,0.03886627033352852
1788093367158980400,11.16798046875,0.23403756320476532,-0.13584105670452118,-0.029626941308379173
1788093367169244700,11.17824462890625,-0.0021380267571657896,0.04230238497257233,-0.006872228812426329
1788093367179508700,11.1885087890625,0.07612902671098709,0.12278381735086441,0.3183369040489197
1788093367189722600,11.19872265625,0.06482802331447601,0.13194678723812103,0.08536835014820099
1788093367199936500,11.2089365234375,0.08659008145332336,0.10972658544778824,-0.28321218490600586
1788093367210194200,11.219194091796876,0.02237292192876339,0.13942988216876984,0.024052800610661507
1788093367230436900,11.239436767578125,-0.0703258067369461,-0.02153298258781433,0.0591011680662632
1788093367240499700,11.249499755859375,-0.12240202724933624,-0.01779143698513508,-0.3202458620071411
1788093367250563800,11.259563720703126,-0.008781181648373604,-0.24312418699264526,-0.00007635809743078426
1788093367260703200,11.269703125,0.16210824251174927,-0.09735657274723053,-0.07643445581197739
1788093367270866700,11.27986669921875,0.18348850309848785,-0.017562363296747208,-0.16699515283107758
1788093367280828700,11.28982861328125,0.17715078592300415,-0.04787652567028999,0.02306014485657215
1788093367291093000,11.300093017578124,0.10499238222837448,0.019242240116000175,0.05810851231217384
1788093367301332700,11.310332763671875,0.11690424382686615,0.2987128794193268,0.18341214954853058
1788093367311571700,11.32057177734375,0.02542724646627903,0.23991714417934418,0.07024945318698883
1788093367321785600,11.33078564453125,-0.1495855152606964,0.024281874299049377,-0.2063959389925003
1788093367332050200,11.34105029296875,-0.16485713422298431,-0.1862373948097229,-0.3039052188396454
1788093367342264300,11.351264404296876,-0.14515674114227295,-0.17234022915363312,-0.2141844630241394
1788093367352498200,11.361498291015625,-0.009086613543331623,-0.3000873327255249,-0.10651954263448715
1788093367372588800,11.3815888671875,0.3623191714286804,0.21930044889450073,0.08261945843696594
1788093367382652700,11.391652587890626,0.2364046722650528,0.0925460159778595,-0.24442227184772491
1788093367392716500,11.401716552734374,-0.1443931609392166,-0.2055560052394867,-0.33895358443260193
1788093367402780000,11.41177978515625,-0.25610506534576416,-0.11476621776819229,0.06612611562013626
1788093367422908000,11.431907958984375,0.05925388261675835,0.20189081132411957,0.33773186802864075
1788093367432971800,11.4419716796875,0.4889208972454071,0.31551164388656616,0.33918267488479614
1788093367443185700,11.452185546875,0.4586831033229828,0.37927067279815674,-0.2401462197303772
1788093367453198000,11.462197998046875,0.3738492429256439,0.22204934060573578,-0.2842048406600952
1788093367463286000,11.4722861328125,-0.06192641705274582,-0.04451677203178406,-0.18035782873630524
1788093367473474800,11.482474853515624,-0.4339430630207062,-0.15294526517391205,-0.25847217440605164
1788093367483562800,11.492562744140624,-0.3539961278438568,-0.3006218373775482,-0.1026252806186676
1788093367493827000,11.5028271484375,-0.12469277530908585,-0.29962918162345886,-0.07750347256660461
1788093367503890000,11.512889892578125,0.0795651376247406,-0.0058795735239982605,-0.07307469844818115
1788093367514078700,11.52307861328125,0.21281002461910248,0.08307760953903198,0.2856556475162506
1788093367524292400,11.533292236328125,0.17608177661895752,0.21494804322719574,0.3454440236091614
1788093367534557000,11.543556884765625,0.1375209391117096,0.25411975383758545,0.06879864633083344
1788093367544771300,11.553771240234376,0.09560033679008484,0.18837542831897736,0.21846051514148712
1788093367565069800,11.57406982421875,0.24778202176094055,0.2274707704782486,0.01259908638894558
1788093367575124000,11.5841240234375,0.18723005056381226,0.2782489061355591,-0.2562577724456787
1788093367585287700,11.59428759765625,-0.024740023538470268,0.05994110554456711,-0.6326268315315247
1788093367595401000,11.60440087890625,-0.16814053058624268,-0.33719736337661743,-0.6646208763122559
1788093367605413400,11.614413330078126,-0.28153231739997864,-0.3017672002315521,-0.4508945643901825
1788093367625891300,11.634891357421875,-0.18264856934547424,-0.20318889617919922,0.41851872205734253
1788093367636155600,11.64515576171875,0.08544471114873886,0.16249002516269684,0.25732678174972534
1788093367646369300,11.655369384765624,0.24526220560073853,0.20853395760059357,0.2680932879447937
1788093367656507600,11.665507568359375,0.10789398849010468,0.1366809904575348,-0.07910698652267456
1788093367666621000,11.675620849609375,0.08109229803085327,0.26358816027641296,-0.12980876863002777
1788093367686897700,11.695897705078124,0.11064288020133972,0.049632761627435684,0.04153880476951599
1788093367697125000,11.706125,0.2522871494293213,-0.09941824525594711,0.03237583488225937
1788093367707212300,11.71621240234375,0.2026543915271759,0.04169152304530144,-0.02802342176437378
1788093367717276400,11.7262763671875,0.11614066362380981,0.08315397053956985,0.1346193253993988
1788093367727415300,11.736415283203126,-0.009315688163042068,0.24976733326911926,0.3675878942012787
1788093367737654500,11.746654541015625,0.028328854590654373,0.22640176117420197,-0.002443459117785096
1788093367747918600,11.756918701171875,0.11896591633558273,0.1424078494310379,-0.16783510148525238
1788093367768397600,11.7773974609375,0.1066722646355629,0.06612611562013626,-0.10270164161920547
1788093367778661600,11.78766162109375,-0.007024944759905338,0.10705405473709106,-0.15317434072494507
1788093367788875500,11.79787548828125,-0.15561780333518982,0.043142326176166534,0.03474293276667595
1788093367799089400,11.80808935546875,-0.026648975908756256,0.12812888622283936,0.1078176349401474
1788093367809353700,11.818353759765625,0.032681263983249664,0.13339759409427643,-0.17799071967601776
1788093367829832400,11.83883251953125,-0.15233440697193146,-0.17997603118419647,-0.1712712198495865
1788093367840096500,11.849096435546874,-0.18860450387001038,-0.010995565913617611,-0.018096869811415672
1788093367850310400,11.859310302734375,-0.11377356201410294,0.007330377586185932,0.07864884287118912
1788093367860524300,11.869524169921876,-0.02390008419752121,0.007635809946805239,0.11369720846414566
1788093367870741500,11.879741455078126,0.21235187351703644,0.17852523922920227,0.08231402933597565
1788093367890878200,11.899878173828125,0.29069527983665466,0.261526495218277,-0.07429642975330353
1788093367900942300,11.9099423828125,0.14225514233112335,0.06589704006910324,-0.18990258872509003
1788093367911156200,11.92015625,-0.1230892539024353,-0.06963858753442764,-0.3078758418560028
1788093367921219000,11.930218994140626,-0.3225366175174713,-0.17653992772102356,-0.173256516456604
1788093367941496600,11.95049658203125,-0.3318522870540619,-0.0435241162776947,0.03130681812763214
1788093367951760600,11.9607607421875,-0.08147408813238144,0.02000582218170166,0.0902552679181099
1788093367972238600,11.981238525390625,0.18409937620162964,0.009010255336761475,-0.10018182545900345
1788093367982503000,11.9915029296875,0.1576794683933258,0.24228423833847046,0.06727148592472076
1788093367992716500,12.001716552734376,0.06215549260377884,0.08727730810642242,-0.04230238497257233
1788093368002880800,12.011880859375,0.027717988938093185,-0.07269290834665298,-0.061620984226465225
1788093368012927500,12.021927490234376,-0.010384701192378998,0.14928008615970612,0.08689551800489426
1788093368033078300,12.042078369140626,0.05841394513845444,0.22991423308849335,0.2251800298690796
1788093368043317200,12.052317138671874,0.03298669680953026,0.31894776225090027,0.0907897800207138
1788093368053581600,12.06258154296875,-0.14782927930355072,0.1066722646355629,0.11308634281158447
1788093368063770000,12.07277001953125,-0.26427537202835083,-0.06528617441654205,-0.1893680840730667
1788093368074009300,12.08300927734375,-0.07338013499975204,-0.10514509677886963,-0.11972949653863907
1788093368084273400,12.0932734375,0.010155626572668552,-0.03145953640341759,-0.16966769099235535
1788093368094512400,12.103512451171875,0.04894553869962692,0.015195261687040329,0.03955349326133728
1788093368104716000,12.113716064453126,0.010155626572668552,0.0027488914784044027,0.0691804364323616
1788093368114950100,12.1239501953125,-0.18929173052310944,0.051618073135614395,-0.061620984226465225
1788093368125164000,12.1341640625,-0.3779725730419159,-0.04734202101826668,0.05513054504990578
1788093368135428600,12.1444287109375,-0.27977606654167175,0.03657552972435951,0.5209149122238159
1788093368145642800,12.154642822265625,-0.01763872057199478,0.4062250852584839,0.44035714864730835
1788093368166095600,12.175095703125,0.08078686892986298,0.09392046183347702,-0.36544984579086304
1788093368176360700,12.185360595703125,-0.021227551624178886,-0.20761767029762268,-0.7980184555053711
1788093368186574600,12.19557470703125,-0.13362666964530945,-0.4191296100616455,-0.8016073107719421
1788093368196653800,12.20565380859375,-0.16745330393314362,-0.47143489122390747,-0.17310380935668945
1788093368206633000,12.215633056640625,-0.12492185086011887,-0.3107011020183563,0.21135921776294708
1788093368226961000,12.2359609375,-0.13416117429733276,0.06811141967773438,0.3044397234916687
1788093368236872700,12.245872802734375,-0.15027274191379547,0.11728604137897491,0.17447824776172638
1788093368247086600,12.256086669921874,-0.1490510106086731,0.24022257328033447,0.028405211865901947
1788093368257300500,12.266300537109375,-0.12209659814834595,0.04650207981467247,0.07567087560892105
1788093368267565000,12.27656494140625,-0.060551971197128296,-0.014889828860759735,0.10422880202531815
1788093368277779200,12.286779296875,0.08468113094568253,0.04718930274248123,0.0665842592716217
1788093368298257400,12.30725732421875,0.06452259421348572,-0.17478369176387787,-0.16439898312091827
1788093368318718700,12.32771875,-0.04566214233636856,0.15661045908927917,0.09621120244264603
1788093368328781300,12.33778125,-0.14408773183822632,-0.026572618633508682,0.05413788929581642
1788093368338844200,12.34784423828125,-0.22640176117420197,-0.14721840620040894,0.004276053514331579
1788093368349108700,12.358108642578125,-0.2540434002876282,0.07192932814359665,0.004428769461810589
1788093368369562000,12.37856201171875,-0.03764454275369644,0.053832460194826126,0.1703549176454544
1788093368379776000,12.38877587890625,0.1115591824054718,0.14897464215755463,-0.0743727833032608
1788093368390040800,12.399040771484374,-0.011682788841426373,-0.050930850207805634,-0.3906480371952057
1788093368400254700,12.409254638671875,-0.1769980639219284,-0.2790125012397766,-0.22357651591300964
1788093368410437600,12.419437744140625,-0.32788166403770447,-0.39164069294929504,-0.023976443335413933
1788093368430554600,12.4395546875,-0.08429934084415436,0.12591449916362762,0.5376373529434204
1788093368440617700,12.44961767578125,0.16416990756988525,0.3254382014274597,0.5698604583740234
1788093368450682000,12.45968212890625,0.30627232789993286,0.5027416944503784,0.10445787757635117
1788093368460746000,12.46974609375,0.2620609998703003,0.2511417865753174,-0.07086031138896942
1788093368470809300,12.479809326171875,-0.060933761298656464,-0.1805105358362198,-0.37667450308799744
1788093368490938000,12.499938232421876,-0.20021092891693115,-0.0732274129986763,0.04169152304530144
1788093368501002200,12.510002197265624,-0.06246092543005943,0.04718930274248123,0.2444986253976822
1788093368511216000,12.520216064453125,0.11178825795650482,-0.09178243577480316,-0.03886627033352852
1788093368521279000,12.530279052734375,-0.024205517023801804,-0.05558869615197182,-0.4387536346912384
1788093368541556500,12.550556396484374,-0.3181841969490051,-0.16653701663017273,0.32734715938568115
1788093368551820500,12.560820556640625,-0.11087195575237274,0.11354449391365051,0.35391977429389954
1788093368572298500,12.581298583984376,0.18142683804035187,0.2360992431640625,0.20792309939861298
1788093368582562800,12.591562744140624,0.2404516488313675,0.4009563624858856,0.3295615613460541
1788093368592675800,12.60167578125,0.16592614352703094,0.28382304310798645,0.27664539217948914
1788093368602890000,12.611889892578125,0.040317077189683914,-0.005268708802759647,-0.1253799945116043
1788093368613154000,12.622154052734375,0.027030766010284424,-0.07261654734611511,-0.3289506733417511
1788093368623368000,12.632367919921874,-0.14630211889743805,-0.06261363625526428,-0.38438665866851807
1788093368633556700,12.642556640625,-0.18463388085365295,-0.12866339087486267,-0.1816559135913849
1788093368653883600,12.662883544921876,-0.1617264449596405,-0.1127045527100563,-0.12751802802085876
1788093368663946500,12.672946533203126,-0.18616104125976562,-0.2594648003578186,-0.22105668485164642
1788093368674135300,12.68313525390625,-0.14538581669330597,-0.21861323714256287,0.2894735336303711
1788093368684349200,12.69334912109375,-0.07185296714305878,0.10224349051713943,0.08055779337882996
1788093368694611000,12.70361083984375,-0.06215549260377884,0.0010690133785828948,-0.015042545273900032
1788093368704821000,12.713821044921875,0.03871355578303337,0.0807105079293251,-0.03756818547844887
1788093368725324300,12.73432421875,0.14019346237182617,0.06108647957444191,0.011759147047996521
1788093368735589000,12.744589111328125,0.06215549260377884,-0.026572618633508682,0.06246092543005943
1788093368745803000,12.754802978515626,-0.02741255611181259,-0.1591302752494812,-0.13729186356067657
1788093368756067300,12.7650673828125,-0.10621411353349686,0.02893971838057041,0.11201732605695724
1788093368766281200,12.77528125,-0.1092684343457222,-0.043829549103975296,0.16928590834140778
1788093368776494800,12.785494873046876,0.04474584385752678,-0.0665842592716217,0.15302163362503052
1788093368786759200,12.79575927734375,0.06421715766191483,0.04306596517562866,-0.22357651591300964
1788093368797024300,12.806024169921875,0.05803215503692627,-0.11224640160799026,-0.05841394513845444
1788093368807238100,12.816238037109375,-0.02695440873503685,-0.15294526517391205,0.003970621153712273
1788093368817452000,12.8264521484375,-0.016035201027989388,0.0009162971982732415,0.08819360285997391
1788093368827716600,12.836716552734375,-0.045967575162649155,0.12774710357189178,0.11743875592947006
1788093368837930800,12.8469306640625,-0.09476039558649063,0.0550541877746582,0.041615162044763565
1788093368848174600,12.857174560546875,-0.11858412623405457,-0.08338304609060287,-0.3603338599205017
1788093368868509700,12.877509765625,-0.12232567369937897,-0.23747368156909943,-0.0206166859716177
1788093368878774500,12.8877744140625,0.10483966767787933,-0.17524182796478271,0.19036073982715607
1788093368888988700,12.89798876953125,0.2364046722650528,0.2903134822845459,0.3314704895019531
1788093368899202600,12.90820263671875,0.31031930446624756,0.3365101218223572,0.37659814953804016
1788093368909467000,12.918466796875,0.2156352698802948,0.15706861019134521,0.050319984555244446
1788093368929945600,12.938945556640626,-0.2671769857406616,-0.29993459582328796,-0.31490078568458557
1788093368940039400,12.949039306640625,-0.43608108162879944,-0.2775616943836212,-0.10041090101003647
1788093368950103800,12.959103759765625,-0.31009024381637573,-0.07536543905735016,0.2202931046485901
1788093368960243000,12.969242919921875,-0.0792597085237503,0.10231985151767731,0.16378812491893768
1788093368970507300,12.97950732421875,0.0896444097161293,-0.029474224895238876,0.00007635809743078426
1788093368980721700,12.9897216796875,0.20822852849960327,-0.12812888622283936,-0.2837466895580292
1788093369001023700,13.010023681640625,0.13019055128097534,-0.029397867619991302,0.15691588819026947
1788093369011237600,13.020237548828124,0.11713331937789917,0.001450803829357028,0.20364704728126526
1788093369021451300,13.030451171875,0.09430225193500519,0.2722166180610657,0.07895427197217941
1788093369031715600,13.040715576171875,-0.004352411720901728,0.19066616892814636,0.13133592903614044
1788093369041908500,13.050908447265625,-0.14866921305656433,0.08804088830947876,0.04283689334988594
1788093369052001500,13.06100146484375,-0.1954767256975174,-0.005574141163378954,-0.17768529057502747
1788093369062065200,13.071065185546875,-0.18516838550567627,-0.07162389904260635,0.018784092739224434
1788093369072304000,13.08130419921875,-0.13301581144332886,-0.19570580124855042,0.05230529606342316
1788093369082316500,13.091316650390626,0.06291907280683517,-0.23258677124977112,0.035964664071798325
1788093369092430000,13.10143017578125,0.19135339558124542,0.021685699000954628,-0.02718348242342472
1788093369102644200,13.111644287109375,0.24258968234062195,0.14828743040561676,0.22288928925991058
1788093369112908500,13.121908447265625,0.09346231073141098,0.13660463690757751,0.09338594973087311
1788093369133386500,13.142386474609374,-0.21380266547203064,-0.015042545273900032,0.016875140368938446
1788093369143600400,13.152600341796875,-0.16592614352703094,0.04581485688686371,0.07574722915887833
1788093369153852400,13.162852294921874,-0.02390008419752121,0.2193768173456192,-0.20135630667209625
1788093369163962000,13.172962158203125,-0.025045456364750862,-0.0862082913517952,-0.4416552484035492
1788093369174026000,13.18302587890625,-0.15668681263923645,-0.4626537263393402,-0.7073050737380981
1788093369194154500,13.203154541015625,-0.15836669504642487,-0.3388008773326874,0.006337722297757864
1788093369204368400,13.213368408203126,-0.14049890637397766,-0.11866047978401184,0.3771326541900635
1788093369214380500,13.223380615234374,-0.025809036567807198,0.08811724185943604,0.4733438491821289
1788093369224493800,13.233493896484376,-0.0683404952287674,0.1893680840730667,-0.04474584385752678
1788093369234657300,13.2436572265625,-0.05940660089254379,0.05367974191904068,-0.22204934060573578
1788093369244770600,13.2537705078125,-0.13797907531261444,-0.12202023714780807,-0.1242346242070198
1788093369265072600,13.27407275390625,0.20242531597614288,-0.10430516302585602,0.09537126123905182
1788093369275286500,13.28428662109375,0.397825688123703,-0.049250971525907516,0.13889537751674652
1788093369285500200,13.294500244140625,0.3842339515686035,0.16294817626476288,-0.18875721096992493
1788093369295764700,13.3047646484375,0.15546508133411407,0.17486004531383514,0.07452550530433655
1788093369305979100,13.314979248046875,-0.12186752259731293,0.048563748598098755,0.19937099516391754
1788093369326248000,13.335248046875,-0.251752644777298,0.06620246917009354,0.06520981341600418
1788093369336307200,13.34530712890625,-0.18700097501277924,-0.08300124853849411,-0.02764163166284561
1788093369346496000,13.35549609375,-0.12957969307899475,-0.22044582664966583,-0.11369720846414566
1788093369356558600,13.36555859375,-0.10369429737329483,-0.07185296714305878,-0.2969566285610199
1788093369366621400,13.375621337890625,-0.15874847769737244,-0.18524473905563354,-0.08483384549617767
1788093369387074600,13.396074462890626,0.025503603741526604,-0.1104138121008873,-0.02412915788590908
1788093369397339400,13.40633935546875,0.15470150113105774,0.03260490670800209,0.26679518818855286
1788093369407553300,13.41655322265625,0.18142683804035187,0.2897026240825653,0.4124864339828491
1788093369417767200,13.42676708984375,0.2810741662979126,0.24236060678958893,0.16050471365451813
1788093369428031700,13.43703173828125,0.18234314024448395,0.15523600578308105,-0.18761184811592102
1788093369438198000,13.447197998046875,-0.016416991129517555,-0.022678354755043983,-0.16928590834140778
1788093369458532400,13.467532470703125,-0.26473352313041687,-0.18142683804035187,0.054672397673130035
1788093369468444000,13.47744384765625,-0.17310380935668945,-0.1769980639219284,0.07612902671098709
1788093369478658000,13.487657958984375,0.04329504072666168,-0.07651081681251526,0.07544180005788803
1788093369488871700,13.49787158203125,0.14110976457595825,-0.0027488914784044027,-0.0824667438864708
1788093369499085600,13.50808544921875,0.09460768103599548,-0.04283689334988594,0.047723811119794846
1788093369509350000,13.518349853515625,-0.040546149015426636,0.009392046369612217,0.3107774555683136
1788093369529828600,13.53882861328125,0.20433427393436432,0.31581708788871765,0.2467893660068512
1788093369550165500,13.55916552734375,-0.034437503665685654,-0.09468404203653336,-0.469678670167923
1788093369560229400,13.5692294921875,-0.24862197041511536,-0.26335906982421875,-0.43600472807884216
1788093369570293500,13.57929345703125,-0.2816086709499359,-0.39416050910949707,-0.22525638341903687
1788093369580357000,13.589357177734374,-0.12347104400396347,-0.277332603931427,0.22014039754867554
1788093369590421200,13.599421142578125,0.08765909820795059,0.09292780607938766,0.28260132670402527
1788093369600484000,13.609484130859375,0.24572035670280457,0.23655737936496735,0.28267768025398254
1788093369610548700,13.619548828125,0.15920662879943848,0.1744018942117691,0.11232276260852814
1788093369620612600,13.629612548828124,-0.01259908638894558,-0.03672824427485466,-0.26534438133239746
1788093369630676200,13.63967626953125,-0.15752676129341125,-0.19127702713012695,-0.17791436612606049
1788093369651005200,13.660005126953125,0.12278381735086441,0.2424369603395462,0.27771440148353577
1788093369660916700,13.669916748046875,0.147905632853508,0.18974986672401428,-0.06360629200935364
1788093369671130600,13.680130615234376,0.0345902182161808,-0.10881029069423676,-0.3600284159183502
1788093369681344500,13.690344482421875,-0.11827868968248367,-0.2421315312385559,-0.23113596439361572
1788093369691609000,13.700609130859375,-0.16966769099235535,-0.05367974191904068,0.08865175396203995
1788093369701823200,13.7108232421875,-0.09262236952781677,-0.03451386094093323,0.30833399295806885
1788093369712087600,13.721087646484374,0.017715077847242355,-0.028634287416934967,0.10713040828704834
1788093369732551400,13.741551513671874,0.06696604937314987,-0.010690134018659592,-0.2782489061355591
1788093369742638000,13.75163818359375,-0.06177370250225067,-0.16042836010456085,-0.11980585753917694
1788093369752702200,13.7617021484375,-0.09537126123905182,-0.11537708342075348,-0.1346193253993988
1788093369762766000,13.77176611328125,-0.08903354406356812,-0.1043815165758133,-0.0576503649353981
1788093369782894000,13.79189404296875,0.09827287495136261,0.043600473552942276,0.07872519642114639
1788093369792958200,13.801958251953126,0.1573740392923355,0.11239911615848541,-0.14813470840454102
1788093369803172000,13.812172119140625,0.08575014024972916,-0.07971785217523575,-0.10972658544778824
1788093369813184300,13.822184326171875,-0.04718930274248123,-0.13179408013820648,0.00755945174023509
1788093369823272400,13.8322724609375,-0.145614892244339,0.10942115634679794,0.18012875318527222
1788093369833537000,13.842537109375,-0.08804088830947876,0.009086613543331623,0.16684244573116302
1788093369843751400,13.85275146484375,0.057726722210645676,0.055741410702466965,0.0461202897131443
1788093369864078300,13.873078369140625,0.09086613357067108,-0.26221370697021484,-0.33047783374786377
1788093369874267100,13.88326708984375,-0.0539088174700737,-0.32536184787750244,0.025503603741526604
1788093369884481000,13.89348095703125,0.005955931730568409,0.05948295816779137,0.29672756791114807
1788093369894739500,13.903739501953124,0.04841103404760361,0.19265148043632507,0.2975675165653229
