time,seconds_elapsed,z,y,x
1788093356104814800,0.11381494140625,-0.07246383279561996,0.06604975461959839,0.007864884100854397
1788093356124941000,0.133941162109375,-0.14393500983715057,0.07765618711709976,-0.10545053333044052
1788093356135004000,0.14400390625,-0.13996438682079315,0.0449749194085598,0.23449571430683136
1788093356145067300,0.1540673828125,-0.17417281866073608,0.10819942504167557,0.10743584483861923
1788093356155130400,0.16413037109375,-0.09262236952781677,0.09353867173194885,-0.2407570779323578
1788093356165193500,0.174193359375,-0.1527925580739975,0.08926261961460114,-0.02084576152265072
1788093356175256600,0.184256591796875,-0.1014799103140831,-0.150196373462677,0.055512335151433945
1788093356185319700,0.194319580078125,-0.022067490965127945,0.0034361144062131643,-0.046807512640953064
1788093356195382800,0.2043828125,-0.015042545273900032,-0.0527634471654892,0.014278964139521122
1788093356205446000,0.21444580078125,0.009086613543331623,-0.06772962957620621,0.2164752036333084
1788093356215509000,0.224509033203125,0.07903063297271729,0.014126247726380825,-0.061162836849689484
1788093356225572000,0.234572021484375,0.06375901401042938,0.024205517023801804,-0.21479532122612
1788093356235635200,0.24463525390625,-0.021151192486286163,0.0709366723895073,-0.04802924394607544
1788093356245698300,0.2546982421875,-0.029703300446271896,-0.07444914430379868,0.0628427118062973
1788093356255761400,0.264761474609375,-0.03550651669502258,0.015042545273900032,0.02588539570569992
1788093356265824800,0.27482470703125,-0.00038179047987796366,-0.043600473552942276,0.053985174745321274
1788093356275887900,0.284887939453125,-0.0009926552884280682,0.02756527252495289,0.0732274129986763
1788093356285951000,0.294950927734375,-0.03428478538990021,-0.020998476073145866,0.03321577236056328
1788093356296014000,0.30501416015625,0.01000291109085083,0.06727148592472076,-0.1115591824054718
1788093356306077200,0.3150771484375,0.04176788032054901,0.038560837507247925,-0.13629920780658722
1788093356316140300,0.325140380859375,0.00847574882209301,0.046196650713682175,0.09827287495136261
1788093356326203400,0.335203369140625,-0.006185005884617567,-0.020387612283229828,0.07964149862527847
1788093356336266500,0.3452666015625,0.024052800610661507,-0.009392046369612217,0.07078395783901215
1788093356346329600,0.35532958984375,0.11629338562488556,-0.051847148686647415,0.08269581943750381
1788093356356392700,0.365392822265625,0.129426971077919,0.05933023989200592,0.14133884012699127
1788093356366455800,0.375455810546875,0.10163262486457825,-0.007864884100854397,-0.02328922040760517
1788093356376519000,0.385518798828125,0.17737986147403717,-0.01672242395579815,-0.116751529276371
1788093356386582300,0.395582275390625,0.08636100590229034,-0.0527634471654892,-0.17753258347511292
1788093356396645400,0.405645263671875,0.15661045908927917,-0.14928008615970612,0.1141553521156311
1788093356406708500,0.41570849609375,0.04451677203178406,-0.08972076326608658,0.13248129189014435
1788093356416771300,0.425771240234375,0.083306685090065,-0.0683404952287674,0.10621411353349686
1788093356426834400,0.43583447265625,0.06711876392364502,-0.024052800610661507,0.0524580143392086
1788093356436897800,0.445897705078125,0.023441936820745468,0.04344775900244713,-0.09414953738451004
1788093356446961000,0.4559609375,0.017333287745714188,0.06696604937314987,-0.004963276442140341
1788093356457024000,0.46602392578125,-0.0553596206009388,0.07643445581197739,-0.07857248187065125
1788093356467087000,0.476087158203125,0.013362666592001915,-0.06925679743289948,-0.1118646115064621
1788093356477150200,0.486150146484375,-0.03550651669502258,-0.03168861195445061,0.02893971838057041
1788093356487213300,0.49621337890625,-0.07612902671098709,-0.013362666592001915,0.06559160351753235
1788093356497276400,0.5062763671875,-0.0397825688123703,-0.02802342176437378,0.046654798090457916
1788093356507339500,0.516339599609375,0.001450803829357028,-0.003283398225903511,0.045738499611616135
1788093356517402600,0.526402587890625,0.021914774551987648,0.024510949850082397,0.004505127668380737
1788093356527465700,0.5364658203125,0.039018988609313965,0.011682788841426373,-0.04741837829351425
1788093356537528800,0.54652880859375,0.03993528336286545,0.022983787581324577,-0.07307469844818115
1788093356547592000,0.556592041015625,0.05123628303408623,-0.13187043368816376,-0.12316560745239258
1788093356557655300,0.5666552734375,-0.023594651371240616,-0.1349247545003891,-0.09689842909574509
1788093356567718400,0.576718505859375,-0.03550651669502258,-0.02283107116818428,0.011530072428286076
1788093356577781500,0.586781494140625,-0.04955640435218811,-0.03962985426187515,0.20761767029762268
1788093356587844600,0.5968447265625,-0.020540328696370125,-0.015500693581998348,0.11782054603099823
1788093356597907700,0.60690771484375,0.012751801870763302,0.06421715766191483,-0.04436405375599861
1788093356607970800,0.616970703125,-0.01107192412018776,0.03367391973733902,-0.18028147518634796
1788093356618034000,0.627033935546875,-0.03306305781006813,-0.006948587018996477,0.09674570709466934
1788093356628097000,0.637096923828125,-0.017486004158854485,0.0031306820455938578,0.033826638013124466
1788093356638160100,0.64716015625,0.048792824149131775,-0.15935935080051422,-0.049861837178468704
1788093356648223200,0.65722314453125,-0.049250971525907516,-0.11751510947942734,-0.11614066362380981
1788093356658286300,0.667286376953125,-0.037033677101135254,-0.040546149015426636,0.04390590637922287
1788093356668349400,0.677349365234375,-0.050778135657310486,0.019624030217528343,0.09980003535747528
1788093356678412500,0.68741259765625,-0.00923932995647192,0.0022143847309052944,0.12789981067180634
1788093356688475600,0.6974755859375,0.019471315667033195,0.0019089524867013097,0.09613484144210815
1788093356698538800,0.707538818359375,0.03779725730419159,0.07704532146453857,0.008781181648373604
1788093356708601900,0.717601806640625,0.09216422587633133,0.07215840369462967,-0.00007635809743078426
1788093356718665000,0.7276650390625,0.12087486684322357,0.05230529606342316,-0.04069886729121208
1788093356728728300,0.737728271484375,0.08910989761352539,-0.011224640533328056,-0.05841394513845444
1788093356738791400,0.74779150390625,0.05429060757160187,-0.11720968037843704,-0.019929463043808937
1788093356748854500,0.7578544921875,0.08972076326608658,-0.0576503649353981,0.14317142963409424
1788093356758917600,0.767917724609375,0.15783219039440155,-0.12851068377494812,0.21036656200885773
1788093356768980700,0.777980712890625,0.20914483070373535,-0.10132719576358795,0.04512763395905495
1788093356789107000,0.79810693359375,0.07536543905735016,0.0077121676877141,-0.27801984548568726
1788093356799170000,0.808170166015625,-0.008628465235233307,0.14485131204128265,-0.022678354755043983
1788093356809233200,0.818233154296875,-0.08376483619213104,0.1995237022638321,0.072921983897686
1788093356819296300,0.828296142578125,-0.08834631741046906,0.08162680268287659,0.0631481483578682
1788093356829359400,0.838359375,-0.12835796177387238,0.10422880202531815,-0.0962875634431839
1788093356839422500,0.84842236328125,-0.09873101860284805,0.021456625312566757,0.024052800610661507
1788093356849485600,0.858485595703125,-0.03611737862229347,-0.004199695307761431,0.1395062506198883
1788093356859548700,0.868548583984375,0.06986765563488007,-0.10071633011102676,0.17921245098114014
1788093356869611800,0.87861181640625,0.15294526517391205,-0.11720968037843704,0.0680350661277771
1788093356879675000,0.8886748046875,0.2213621288537979,-0.13125957548618317,-0.15187625586986542
1788093356889738000,0.898738037109375,0.20303617417812347,-0.12698352336883545,-0.11827868968248367
1788093356899801000,0.908801025390625,0.1712712198495865,-0.1037706509232521,-0.04955640435218811
1788093356909864400,0.918864501953125,0.15233440697193146,-0.11751510947942734,-0.03917170315980911
1788093356919927600,0.928927490234375,0.0680350661277771,-0.03352120518684387,-0.06971494108438492
1788093356929990700,0.93899072265625,-0.041004300117492676,-0.001450803829357028,-0.07154753804206848
1788093356940053800,0.9490537109375,-0.10942115634679794,0.06482802331447601,0.07139482349157333
1788093356950116900,0.959116943359375,-0.09842558950185776,0.10789398849010468,0.1605810821056366
1788093356960180000,0.969179931640625,-0.08865175396203995,0.06788235157728195,0.14317142963409424
1788093356970243000,0.9792431640625,-0.05230529606342316,0.03275762498378754,-0.09292780607938766
1788093356980306200,0.98930615234375,-0.005574141163378954,0.050778135657310486,-0.20013457536697388
1788093356990369300,0.999369384765625,-0.07521272450685501,0.02328922040760517,-0.09567669779062271
1788093357000432400,1.009432373046875,-0.05719221383333206,-0.04512763395905495,0.22075125575065613
1788093357010495500,1.01949560546875,-0.04283689334988594,0.05169443041086197,0.18318307399749756
1788093357020558600,1.02955859375,0.041157014667987823,-0.035964664071798325,-0.04833467677235603
1788093357030621700,1.03962158203125,0.004810560029000044,-0.03840812295675278,-0.23892448842525482
1788093357040684800,1.049684814453125,-0.016569707542657852,-0.01000291109085083,-0.11950042098760605
1788093357050748000,1.059747802734375,-0.0501672700047493,0.03764454275369644,0.1813504844903946
1788093357060811000,1.06981103515625,-0.041004300117492676,-0.020998476073145866,0.32612544298171997
1788093357070874000,1.0798740234375,0.018555017188191414,-0.012446369975805283,0.19234605133533478
1788093357080937500,1.0899375,0.07414371520280838,0.01718057133257389,-0.15401428937911987
1788093357091000600,1.10000048828125,0.024663666263222694,-0.009392046369612217,-0.12896881997585297
1788093357101063700,1.110063720703125,-0.008933897130191326,-0.014278964139521122,-0.039477135986089706
1788093357111126500,1.12012646484375,0.020082179456949234,-0.04024071618914604,0.053985174745321274
1788093357121189600,1.130189697265625,-0.04222602769732475,-0.03168861195445061,-0.01259908638894558
1788093357131253000,1.1402529296875,-0.07673988491296768,-0.03627009689807892,-0.04558578506112099
1788093357141316000,1.150316162109375,-0.07185296714305878,0.022983787581324577,0.04604393243789673
1788093357151379200,1.160379150390625,-0.026038112118840218,0.046807512640953064,0.15263983607292175
1788093357161442300,1.1704423828125,0.004505127668380737,0.022678354755043983,0.16699515283107758
1788093357171505400,1.18050537109375,0.03810269013047218,-0.023136503994464874,-0.030314164236187935
1788093357181568500,1.190568603515625,0.04298960790038109,0.011988221667706966,-0.18639011681079865
1788093357191631600,1.200631591796875,0.013668099418282509,-0.013973532244563103,-0.12560907006263733
1788093357201694700,1.21069482421875,-0.05047270283102989,-0.020082179456949234,0.16485713422298431
1788093357211757800,1.2207578125,-0.06452259421348572,0.0654388889670372,0.23480114340782166
1788093357221821000,1.230821044921875,-0.0009926552884280682,0.03611737862229347,0.06864593178033829
1788093357231884000,1.240884033203125,-0.01565340906381607,0.03245219215750694,-0.22853977978229523
1788093357241947100,1.250947021484375,-0.081015944480896,-0.026801692321896553,-0.2667188346385956
1788093357252010200,1.26101025390625,-0.08926261961460114,0.0077121676877141,-0.05322159454226494
1788093357262073300,1.2710732421875,-0.0862082913517952,0.05352702736854553,0.2586248815059662
1788093357272136400,1.281136474609375,-0.08529199659824371,0.020540328696370125,0.2277761995792389
1788093357282199600,1.291199462890625,-0.044669486582279205,0.06482802331447601,-0.0703258067369461
1788093357292262700,1.3012626953125,-0.02176205813884735,0.09689842909574509,-0.35559967160224915
1788093357302326000,1.311325927734375,-0.040088001638650894,0.09476039558649063,-0.16103923320770264
1788093357312389000,1.32138916015625,-0.06360629200935364,0.06452259421348572,0.023441936820745468
1788093357322452200,1.3314521484375,-0.059635672718286514,-0.0017562361899763346,0.13889537751674652
1788093357332515300,1.341515380859375,-0.09842558950185776,0.044669486582279205,0.07567087560892105
1788093357342578400,1.351578369140625,-0.11369720846414566,-0.00847574882209301,-0.09903645515441895
1788093357352641500,1.3616416015625,-0.1268308013677597,0.006185005884617567,-0.10789398849010468
1788093357362704600,1.37170458984375,-0.11919499188661575,0.028176138177514076,0.06436987966299057
1788093357372767700,1.381767822265625,-0.11339177191257477,0.04192059487104416,0.1346193253993988
1788093357382830800,1.391830810546875,-0.11308634281158447,0.08040507882833481,-0.054443322122097015
1788093357392894000,1.40189404296875,-0.1472947746515274,0.052916161715984344,-0.3110065162181854
1788093357402957000,1.41195703125,-0.18058690428733826,0.0058795735239982605,-0.20654866099357605
1788093357413020200,1.422020263671875,-0.27282747626304626,0.01870773360133171,-0.11217004805803299
1788093357423083300,1.432083251953125,-0.2758817970752716,-0.19387321174144745,0.18929173052310944
1788093357433146400,1.442146484375,-0.0012980876490473747,-0.10163262486457825,0.14683662354946136
1788093357443209500,1.45220947265625,0.05367974191904068,-0.07506000995635986,-0.06849320977926254
1788093357453272600,1.4622724609375,-0.02328922040760517,0.022067490965127945,-0.3381900191307068
1788093357463335700,1.472335693359375,-0.17692171037197113,-0.061620984226465225,-0.18119776248931885
1788093357473398800,1.482398681640625,-0.036422811448574066,-0.03107774630188942,0.16332997381687164
1788093357483462000,1.4924619140625,0.09735657274723053,-0.08452841639518738,0.3548360764980316
1788093357493525000,1.50252490234375,0.14164426922798157,0.004963276442140341,0.2176969349384308
1788093357503588000,1.512588134765625,0.12698352336883545,0.17997603118419647,-0.0703258067369461
1788093357513651200,1.522651123046875,0.021914774551987648,0.13019055128097534,-0.17722713947296143
1788093357523714600,1.532714599609375,0.002672533504664898,-0.07108938694000244,0.029856016859412193
1788093357533777700,1.542777587890625,0.08208495378494263,0.010766491293907166,0.07108938694000244
1788093357543840800,1.5528408203125,-0.026343543082475662,-0.13920080661773682,0.18012875318527222
1788093357553903900,1.56290380859375,0.11323905736207962,0.027259841561317444,-0.008017600513994694
1788093357563966700,1.572966796875,0.07628174126148224,0.10697769373655319,-0.039477135986089706
1788093357574030000,1.583030029296875,0.010919207707047462,-0.10590868443250656,0.15813761949539185
1788093357584093200,1.59309326171875,0.13553562760353088,0.07918334752321243,0.24335326254367828
1788093357594156300,1.60315625,0.22014039754867554,-0.0029779658652842045,0.1404225379228592
1788093357604219400,1.613219482421875,0.22960880398750305,-0.20028728246688843,-0.10606139898300171
1788093357614282500,1.623282470703125,0.2677878439426422,-0.1807396113872528,-0.17569997906684875
1788093357624345600,1.633345703125,0.1508072465658188,-0.10010546445846558,-0.15431971848011017
1788093357634408700,1.64340869140625,0.027107125148177147,-0.0781143307685852,0.09980003535747528
1788093357644471800,1.653471923828125,-0.08162680268287659,0.10178534686565399,0.027107125148177147
1788093357654535000,1.663534912109375,-0.08712458610534668,0.08040507882833481,-0.14637847244739532
1788093357664598000,1.673597900390625,-0.14973822236061096,0.07368556410074234,-0.3574322462081909
1788093357674661000,1.6836611328125,-0.16165009140968323,0.06238456442952156,-0.194025918841362
1788093357684724200,1.69372412109375,-0.1527925580739975,0.08895718306303024,0.16455170512199402
1788093357694787300,1.703787353515625,-0.06391172856092453,0.009850194677710533,0.35850125551223755
1788093357704850400,1.713850341796875,0.05581776797771454,-0.048792824149131775,0.16852232813835144
1788093357714913500,1.72391357421875,0.20731224119663239,-0.0680350661277771,-0.1778380125761032
1788093357724976600,1.7339765625,0.21281002461910248,-0.1193477064371109,-0.26824599504470825
1788093357735039700,1.744039794921875,0.2622900605201721,-0.27603453397750854,-0.0058795735239982605
1788093357745103000,1.75410302734375,0.274812787771225,-0.29222244024276733,0.1346193253993988
1788093357755166000,1.764166015625,0.29100072383880615,-0.20364704728126526,0.10621411353349686
1788093357765229000,1.77422900390625,0.2833648920059204,-0.16760602593421936,-0.009850194677710533
1788093357775292200,1.784292236328125,0.20792309939861298,-0.10163262486457825,-0.10270164161920547
1788093357785355300,1.794355224609375,0.18501566350460052,-0.025579962879419327,0.012446369975805283
1788093357795418600,1.804418701171875,0.16271910071372986,0.008017600513994694,0.16302454471588135
1788093357805481700,1.814481689453125,0.10774127393960953,-0.009392046369612217,0.1196531355381012
1788093357815544800,1.824544921875,0.04390590637922287,0.021456625312566757,-0.1628718227148056
1788093357825608000,1.83460791015625,-0.029397867619991302,0.11339177191257477,-0.2346484363079071
1788093357835671000,1.844671142578125,-0.08834631741046906,0.08254310488700867,-0.09292780607938766
1788093357845734100,1.854734130859375,-0.18150319159030914,0.06299543380737305,0.2115882933139801
1788093357855797200,1.86479736328125,-0.13110685348510742,0.08040507882833481,0.26656612753868103
1788093357865860400,1.8748603515625,-0.02390008419752121,0.0022143847309052944,0.05887209251523018
1788093357875923500,1.88492333984375,0.016416991129517555,-0.030772313475608826,-0.3119228184223175
1788093357885986600,1.894986572265625,-0.0012980876490473747,-0.020387612283229828,-0.35101816058158875
1788093357896049700,1.905049560546875,-0.0501672700047493,0.03917170315980911,-0.01259908638894558
1788093357906112800,1.91511279296875,-0.06085740402340889,0.029397867619991302,0.36827510595321655
1788093357916176000,1.92517578125,-0.028787001967430115,-0.01672242395579815,0.36308276653289795
1788093357926239000,1.935239013671875,0.0243582334369421,0.03000873140990734,0.011224640533328056
1788093357936302000,1.945302001953125,0.02130390889942646,0.03672824427485466,-0.2761872410774231
1788093357946365200,1.955365234375,-0.05322159454226494,-0.010613775812089443,-0.10972658544778824
1788093357956428300,1.96542822265625,-0.09445496648550034,0.05474875494837761,0.044211339205503464
1788093357966491400,1.975491455078125,-0.1014799103140831,0.027870705351233482,0.1300378441810608
1788093357976554500,1.985554443359375,-0.16623157262802124,0.022067490965127945,0.06345357745885849
1788093357986617600,1.99561767578125,-0.1527925580739975,0.037033677101135254,-0.08559742569923401
1788093357996680700,2.0056806640625,-0.13935352861881256,0.10270164161920547,-0.028176138177514076
1788093358006743800,2.015743896484375,-0.1066722646355629,0.08926261961460114,0.14378230273723602
1788093358016807200,2.02580712890625,-0.0651334598660469,0.043142326176166534,0.19784383475780487
1788093358026870000,2.0358701171875,-0.030925029888749123,0.05688678100705147,-0.04833467677235603
1788093358036933000,2.04593310546875,-0.038560837507247925,0.07124210149049759,-0.2816850244998932
1788093358046996200,2.055996337890625,-0.081015944480896,0.005268708802759647,-0.2566395699977875
1788093358057059300,2.066059326171875,-0.11827868968248367,-0.002672533504664898,0.06528617441654205
1788093358067122700,2.076122802734375,-0.1427132785320282,0.0501672700047493,0.13736821711063385
1788093358077185800,2.086185791015625,-0.08529199659824371,0.01779143698513508,0.035964664071798325
1788093358087249000,2.096248779296875,-0.09842558950185776,0.04130972921848297,-0.21815508604049683
1788093358097312000,2.10631201171875,-0.11614066362380981,0.05322159454226494,-0.21510076522827148
1788093358107374800,2.116374755859375,-0.15187625586986542,0.0862082913517952,0.03840812295675278
1788093358117438200,2.126438232421875,-0.12774710357189178,0.10881029069423676,0.3132972717285156
1788093358127501300,2.136501220703125,-0.08223766833543777,0.10789398849010468,0.2482401728630066
1788093358137564400,2.146564453125,-0.026648975908756256,0.10209077596664429,-0.0602465383708477
1788093358147627500,2.15662744140625,-0.01626427471637726,0.1219438835978508,-0.3317759335041046
1788093358157690600,2.166690673828125,0.028634287416934967,0.021456625312566757,-0.12255474925041199
1788093358167753700,2.176753662109375,-0.009850194677710533,-0.02283107116818428,0.003894262947142124
1788093358177816800,2.18681689453125,0.00511599238961935,-0.06131555140018463,0.060093823820352554
1788093358187880000,2.1968798828125,-0.051389001309871674,-0.03138317912817001,0.015500693581998348
1788093358197943000,2.206943115234375,-0.1170569658279419,0.012904518283903599,-0.10178534686565399
1788093358208006100,2.217006103515625,-0.173256516456604,0.06299543380737305,-0.02390008419752121
1788093358218069200,2.2270693359375,-0.14026983082294464,-0.0005345066892914474,0.104076087474823
1788093358228132400,2.23713232421875,-0.004352411720901728,-0.039018988609313965,0.10774127393960953
1788093358238195500,2.247195556640625,0.05734493210911751,-0.06925679743289948,-0.10697769373655319
1788093358248258600,2.257258544921875,0.013668099418282509,0.014431680552661419,-0.2514472007751465
1788093358258321700,2.26732177734375,-0.046196650713682175,-0.03962985426187515,-0.15401428937911987
1788093358268384800,2.277384765625,-0.16928590834140778,-0.093691386282444,0.036880962550640106
1788093358278447900,2.28744775390625,-0.06818778067827225,-0.12789981067180634,0.13217586278915405
1788093358288511000,2.297510986328125,-0.01718057133257389,-0.04329504072666168,0.04543306678533554
1788093358298574000,2.307573974609375,-0.05230529606342316,-0.14225514233112335,-0.1424078494310379
1788093358308637200,2.31763720703125,-0.14943279325962067,-0.026190826669335365,-0.20318889617919922
1788093358318700300,2.3277001953125,-0.1014799103140831,0.004657844081521034,0.0011453714687377214
1788093358328763400,2.337763427734375,0.054901473224163055,-0.07597630470991135,0.2378554791212082
1788093358338826800,2.34782666015625,0.16668972373008728,-0.053985174745321274,0.2213621288537979
1788093358348889600,2.3578896484375,0.16241367161273956,0.095982126891613,0.06101011857390404
1788093358358952700,2.36795263671875,0.07444914430379868,0.15920662879943848,-0.10453423857688904
1788093358369015800,2.378015869140625,0.012751801870763302,0.0016035200096666813,0.03627009689807892
1788093358379079000,2.388078857421875,0.07017309218645096,0.02848157100379467,0.07597630470991135
1788093358389142300,2.398142333984375,0.03840812295675278,-0.013668099418282509,0.09246965497732162
1788093358399205400,2.408205322265625,0.017333287745714188,0.010766491293907166,0.0371863916516304
1788093358409268500,2.4182685546875,-0.03764454275369644,0.00954476185142994,-0.004657844081521034
1788093358419331300,2.428331298828125,0.013362666592001915,0.1369100660085678,0.01672242395579815
1788093358429394400,2.43839453125,0.0057268571108579636,-0.15263983607292175,0.29374960064888
1788093358439457800,2.448457763671875,0.1758527010679245,0.13385574519634247,0.1395062506198883
1788093358449521000,2.45852099609375,0.09827287495136261,-0.17982332408428192,-0.05413788929581642
1788093358459584000,2.468583984375,0.03871355578303337,-0.28244858980178833,-0.15920662879943848
1788093358469647000,2.478647216796875,0.04329504072666168,-0.04451677203178406,-0.10086904466152191
1788093358479710200,2.488710205078125,-0.11308634281158447,-0.07689260691404343,0.18226677179336548
1788093358489773300,2.498773193359375,-0.18211406469345093,0.06085740402340889,0.14286600053310394
1788093358499836400,2.50883642578125,-0.14057525992393494,0.1011744812130928,-0.0907897800207138
1788093358509899500,2.5188994140625,-0.20563235878944397,0.0397825688123703,-0.33483025431632996
1788093358519962600,2.528962646484375,-0.2508363425731659,-0.016416991129517555,-0.2496146261692047
1788093358530025700,2.539025634765625,-0.11583523452281952,-0.03474293276667595,0.0576503649353981
1788093358540088800,2.5490888671875,0.07567087560892105,-0.08910989761352539,0.2885572612285614
1788093358550152000,2.55915185546875,0.20364704728126526,-0.06589704006910324,0.1712712198495865
1788093358560215000,2.569215087890625,0.23113596439361572,0.14424043893814087,-0.12805253267288208
1788093358570278100,2.579278076171875,0.1404225379228592,0.19036073982715607,-0.3220020830631256
1788093358580341200,2.58934130859375,0.07506000995635986,0.012904518283903599,-0.116751529276371
1788093358590404400,2.599404296875,0.12667807936668396,0.05841394513845444,0.032910339534282684
1788093358600467500,2.609467529296875,0.1251509189605713,-0.00022907429956831038,0.06864593178033829
1788093358610530600,2.619530517578125,0.08727730810642242,-0.002061668550595641,0.026190826669335365
1788093358620593700,2.62959375,0.023136503994464874,0.061162836849689484,-0.06177370250225067
1788093358630656800,2.63965673828125,0.007254019379615784,0.05566505342721939,0.04298960790038109
1788093358640720000,2.649719970703125,0.09827287495136261,0.08193223923444748,0.17921245098114014
1788093358650783000,2.659782958984375,0.15233440697193146,0.014737112447619438,0.1654679924249649
1788093358660846000,2.66984619140625,0.17951788008213043,-0.07261654734611511,-0.12072215229272842
1788093358670909200,2.6799091796875,0.22563818097114563,-0.10621411353349686,-0.2398407906293869
1788093358680972300,2.68997216796875,0.24365869164466858,-0.14103341102600098,-0.12591449916362762
1788093358691035400,2.700035400390625,0.1550832986831665,-0.15355613827705383,0.19020801782608032
1788093358701098500,2.710098388671875,0.18837542831897736,-0.0683404952287674,0.1908188909292221
1788093358711161600,2.72016162109375,0.2519053518772125,-0.04787652567028999,0.01030834298580885
1788093358721224700,2.730224609375,0.20822852849960327,-0.08941533416509628,-0.31039565801620483
1788093358731287800,2.740287841796875,0.12118030339479446,-0.08483384549617767,-0.2795470058917999
1788093358741351000,2.750350830078125,0.030466880649328232,0.06146826967597008,-0.027259841561317444
1788093358751414000,2.7604140625,-0.021456625312566757,0.06940951198339462,0.2949713170528412
1788093358761477400,2.770477294921875,-0.030925029888749123,0.08407026529312134,0.26106834411621094
1788093358771540500,2.78054052734375,0.0423787422478199,0.038560837507247925,-0.03214675933122635
1788093358781603300,2.790603271484375,0.022220205515623093,0.007101302966475487,-0.24442227184772491
1788093358791666400,2.80066650390625,0.0576503649353981,-0.2018144577741623,-0.034895651042461395
1788093358801729500,2.8107294921875,0.050930850207805634,-0.2274707704782486,0.129426971077919
1788093358811793000,2.82079296875,0.07170025259256363,-0.25007277727127075,0.2213621288537979
1788093358821856000,2.83085595703125,0.08972076326608658,-0.212504580616951,0.12728895246982574
1788093358831919000,2.840919189453125,0.0524580143392086,-0.0005345066892914474,-0.004352411720901728
1788093358841982200,2.850982177734375,0.012140937149524689,0.15645773708820343,0.024663666263222694
1788093358852045000,2.861045166015625,-0.06360629200935364,0.131717711687088,0.07444914430379868
1788093358862108400,2.8711083984375,-0.04405862092971802,0.08804088830947876,0.01611155830323696
1788093358872171500,2.881171630859375,-0.06482802331447601,0.0553596206009388,-0.15493057668209076
1788093358882234600,2.891234619140625,-0.09506583213806152,0.0012980876490473747,-0.08712458610534668
1788093358892297700,2.901297607421875,-0.23922991752624512,0.1375209391117096,0.11629338562488556
1788093358902360800,2.91136083984375,-0.24381139874458313,0.14515674114227295,0.31696245074272156
1788093358912424000,2.921423828125,-0.2193768173456192,0.18241949379444122,0.16363540291786194
1788093358922487000,2.931487060546875,-0.1579848974943161,0.13416117429733276,-0.14362958073616028
1788093358932550100,2.941550048828125,-0.13965895771980286,0.04436405375599861,-0.24839289486408234
1788093358942613200,2.95161328125,-0.1268308013677597,0.03000873140990734,-0.08407026529312134
1788093358952676400,2.96167626953125,-0.09292780607938766,0.05322159454226494,0.22563818097114563
1788093358962739500,2.971739501953125,-0.022678354755043983,0.0077121676877141,0.2677878439426422
1788093358972802600,2.981802490234375,0.07780890166759491,-0.026190826669335365,0.07414371520280838
1788093358982865700,2.99186572265625,0.11537708342075348,0.0058795735239982605,-0.2697731554508209
1788093358992928800,3.0019287109375,0.1443931609392166,-0.10529781877994537,-0.11461350321769714
1788093359002991900,3.011991943359375,0.10560324788093567,-0.0527634471654892,-0.051389001309871674
1788093359013055000,3.022054931640625,0.10499238222837448,-0.07964149862527847,0.00022907429956831038
1788093359023118000,3.0321181640625,0.02741255611181259,-0.056428633630275726,-0.008933897130191326
1788093359033181200,3.04218115234375,-0.05688678100705147,0.020540328696370125,-0.003741546766832471
1788093359043244300,3.052244384765625,-0.06666062027215958,0.07399099320173264,0.11537708342075348
1788093359053307400,3.062307373046875,-0.049861837178468704,0.08834631741046906,0.1657734364271164
1788093359063370500,3.07237060546875,-0.0345902182161808,0.05933023989200592,0.12179116904735565
1788093359073433600,3.08243359375,-0.012904518283903599,0.008628465235233307,-0.18272492289543152
1788093359083496700,3.09249658203125,0.026190826669335365,-0.03657552972435951,-0.26885685324668884
1788093359093559800,3.102559814453125,-0.007101302966475487,0.012293653562664986,-0.18700097501277924
1788093359103623000,3.112622802734375,-0.0345902182161808,-0.09582941234111786,0.20395247638225555
1788093359113686000,3.12268603515625,-0.07765618711709976,-0.03627009689807892,0.20303617417812347
1788093359123749000,3.1327490234375,-0.0031306820455938578,0.030314164236187935,0.015806125476956367
1788093359133812200,3.142812255859375,-0.059024810791015625,0.10392337292432785,-0.2664133906364441
1788093359143875300,3.152875244140625,-0.091400645673275,0.11491893976926804,-0.13904809951782227
1788093359153938400,3.1629384765625,-0.11094831675291061,0.1014799103140831,0.18012875318527222
1788093359164001500,3.17300146484375,-0.04864010959863663,-0.0191658828407526,0.39912378787994385
1788093359174064600,3.183064697265625,0.018555017188191414,-0.040546149015426636,0.24885104596614838
1788093359184128000,3.1931279296875,0.13736821711063385,-0.002061668550595641,-0.13843722641468048
1788093359194191000,3.203191162109375,0.12148573249578476,0.03825540840625763,-0.2709949016571045
1788093359204254200,3.213254150390625,0.15202897787094116,-0.10865757614374161,-0.1329394429922104
1788093359214317000,3.223317138671875,0.1498909443616867,-0.14378230273723602,-0.004352411720901728
1788093359224380200,3.233380126953125,0.1190422773361206,-0.10987929999828339,0.023136503994464874
1788093359234443500,3.243443603515625,0.061620984226465225,-0.08239039033651352,0.03260490670800209
1788093359244506600,3.253506591796875,0.0035888305865228176,0.009850194677710533,0.039018988609313965
1788093359254569700,3.26356982421875,0.00511599238961935,0.0657443255186081,0.15752676129341125
1788093359264632800,3.2736328125,0.013973532244563103,0.07124210149049759,0.18501566350460052
1788093359274696000,3.283696044921875,0.04940368980169296,0.05994110554456711,0.058566659688949585
1788093359284759000,3.293759033203125,0.04329504072666168,0.06604975461959839,-0.22304199635982513
1788093359294822100,3.303822265625,0.0888044685125351,-0.01824958436191082,-0.15920662879943848
1788093359304885200,3.31388525390625,-0.012904518283903599,-0.021914774551987648,-0.028176138177514076
1788093359314948400,3.3239482421875,0.03504836559295654,-0.10835213959217072,0.2677878439426422
1788093359325011500,3.334011474609375,0.019471315667033195,0.015347977168858051,0.11476621776819229
1788093359335074600,3.344074462890625,0.06956222653388977,0.014737112447619438,-0.12713623046875
1788093359345137700,3.3541376953125,-0.022983787581324577,0.0016035200096666813,-0.2813795804977417
1788093359355200800,3.36420068359375,-0.07338013499975204,-0.008781181648373604,-0.051389001309871674
1788093359365264000,3.374263916015625,-0.09353867173194885,-0.006948587018996477,0.2674824297428131
1788093359375327000,3.384326904296875,-0.08223766833543777,-0.017027854919433594,0.3462839722633362
1788093359385390000,3.39439013671875,-0.016875140368938446,0.060551971197128296,0.13706278800964355
1788093359395453200,3.404453125,-0.0012980876490473747,0.17020219564437866,-0.229150652885437
1788093359405516300,3.414516357421875,0.0023671009112149477,0.041615162044763565,-0.11369720846414566
1788093359415579400,3.424579345703125,-0.01870773360133171,-0.002061668550595641,-0.08743002265691757
1788093359425642500,3.434642578125,0.02802342176437378,-0.11537708342075348,-0.04589121788740158
1788093359435705600,3.44470556640625,0.015806125476956367,-0.13248129189014435,-0.041004300117492676
1788093359445768700,3.454768798828125,-0.003741546766832471,-0.08391755074262619,-0.03153589367866516
1788093359455832000,3.46483203125,0.046654798090457916,-0.02893971838057041,0.08636100590229034
1788093359465895000,3.47489501953125,0.06925679743289948,0.0034361144062131643,0.15813761949539185
1788093359475958000,3.4849580078125,0.04696023091673851,-0.014584396965801716,0.13706278800964355
1788093359486021000,3.495021240234375,0.04512763395905495,0.03611737862229347,-0.14973822236061096
1788093359496084200,3.505084228515625,0.05001455545425415,0.049250971525907516,-0.19066616892814636
1788093359506147600,3.515147705078125,-0.05780307948589325,0.15951207280158997,-0.18700097501277924
1788093359516210700,3.525210693359375,-0.06360629200935364,-0.004810560029000044,0.12179116904735565
1788093359526273800,3.535273681640625,-0.07979421317577362,0.05871937796473503,0.08208495378494263
1788093359536337000,3.5453369140625,-0.004963276442140341,0.008933897130191326,-0.07185296714305878
1788093359546399700,3.555399658203125,-0.06818778067827225,0.03581194952130318,-0.2651916742324829
1788093359556463000,3.565463134765625,-0.091400645673275,-0.01611155830323696,-0.050778135657310486
1788093359566526200,3.575526123046875,-0.11736239492893219,-0.057039499282836914,0.28183773159980774
1788093359576589300,3.58558935546875,-0.0449749194085598,-0.07017309218645096,0.4745655655860901
1788093359586652400,3.59565234375,0.02893971838057041,-0.002672533504664898,0.28733551502227783
1788093359596715500,3.605715576171875,0.11995857208967209,0.052916161715984344,-0.16745330393314362
1788093359606778600,3.615778564453125,0.10224349051713943,0.00038179047987796366,-0.1937204897403717
1788093359616841700,3.625841796875,0.1089630052447319,-0.07261654734611511,-0.21846051514148712
1788093359626904800,3.63590478515625,0.145614892244339,-0.14408773183822632,-0.12866339087486267
1788093359636968000,3.645968017578125,0.07872519642114639,-0.09277509152889252,-0.12041672319173813
1788093359647031000,3.656031005859375,0.02588539570569992,-0.05917752534151077,-0.01626427471637726
1788093359657094100,3.66609423828125,-0.004963276442140341,-0.001450803829357028,0.11995857208967209
1788093359667157200,3.6761572265625,0.012446369975805283,0.021151192486286163,0.22380557656288147
1788093359677220400,3.686220458984375,0.009697478264570236,0.05199986323714256,0.145614892244339
1788093359687283500,3.696283447265625,0.050930850207805634,0.054443322122097015,-0.10056361556053162
1788093359697346600,3.7063466796875,0.06223184987902641,0.08529199659824371,-0.2716057598590851
1788093359707409700,3.71640966796875,0.05520690605044365,-0.010919207707047462,-0.22365286946296692
1788093359717472800,3.72647265625,0.019471315667033195,-0.0576503649353981,0.16424626111984253
1788093359727536000,3.7365361328125,-0.04130972921848297,-0.002061668550595641,0.16913318634033203
1788093359737599000,3.746598876953125,0.017333287745714188,-0.014278964139521122,0.027717988938093185
1788093359747662000,3.756662109375,-0.08376483619213104,0.14882193505764008,-0.26427537202835083
1788093359757725200,3.76672509765625,-0.10850485414266586,0.09750928729772568,-0.1726456582546234
1788093359767788300,3.776788330078125,-0.14485131204128265,0.04069886729121208,0.07231111824512482
1788093359777851600,3.7868515625,-0.07765618711709976,0.00007635809743078426,0.3252091407775879
1788093359787914800,3.796914794921875,-0.03245219215750694,0.005268708802759647,0.23357942700386047
1788093359797977900,3.806977783203125,0.0475710928440094,-0.0017562361899763346,-0.09353867173194885
1788093359808041000,3.817041015625,0.039018988609313965,0.06696604937314987,-0.1839466542005539
1788093359818104000,3.82710400390625,0.03962985426187515,0.007101302966475487,-0.14698933064937592
1788093359828167200,3.837167236328125,0.04604393243789673,-0.10254892706871033,-0.05841394513845444
1788093359838230300,3.847230224609375,-0.03000873140990734,-0.036880962550640106,-0.04711294546723366
1788093359848293400,3.85729345703125,-0.08132137358188629,-0.0243582334369421,-0.014431680552661419
1788093359858356500,3.8673564453125,-0.07826705276966095,0.03061959706246853,0.11171189695596695
1788093359868419600,3.877419677734375,-0.04955640435218811,0.05566505342721939,0.191735178232193
1788093359878482700,3.887482666015625,-0.025732679292559624,-0.004199695307761431,0.14133884012699127
1788093359888545800,3.8975458984375,0.018860450014472008,0.00954476185142994,-0.09720385819673538
1788093359898609000,3.90760888671875,0.04818195849657059,0.05688678100705147,-0.2716057598590851
1788093359908672000,3.917672119140625,0.026801692321896553,-0.0475710928440094,-0.18058690428733826
1788093359918735000,3.927735107421875,-0.020540328696370125,-0.0988837331533432,0.17890702188014984
1788093359928798200,3.937798095703125,-0.0345902182161808,-0.03840812295675278,0.2167806327342987
1788093359938861300,3.947861328125,0.020693045109510422,-0.04909825697541237,0.026801692321896553
1788093359948924700,3.957924560546875,-0.04405862092971802,0.06268999725580215,-0.27771440148353577
1788093359958987800,3.96798779296875,-0.0553596206009388,0.05933023989200592,-0.23892448842525482
1788093359969051000,3.97805078125,-0.11461350321769714,0.04589121788740158,0.06956222653388977
1788093359979114000,3.988114013671875,-0.07154753804206848,0.02084576152265072,0.34353506565093994
1788093359989177000,3.998177001953125,-0.04253146052360535,-0.001450803829357028,0.2940550446510315
1788093359999240200,4.008240234375,0.017333287745714188,-0.02588539570569992,-0.06085740402340889
1788093360009303300,4.01830322265625,0.010919207707047462,0.1274416595697403,-0.251752644777298
1788093360019366400,4.028366455078125,0.047265663743019104,0.018096869811415672,-0.14362958073616028
1788093360029429500,4.038429443359375,0.028634287416934967,-0.060704685747623444,0.001450803829357028
1788093360039492600,4.04849267578125,0.00511599238961935,-0.03565923124551773,0.023136503994464874
1788093360049555700,4.0585556640625,-0.01107192412018776,-0.07994692772626877,0.05612320080399513
1788093360059618800,4.068618896484375,-0.05780307948589325,-0.003283398225903511,0.08116865903139114
1788093360069682000,4.078681884765625,-0.0031306820455938578,0.06299543380737305,0.15294526517391205
1788093360079745300,4.088745361328125,0.01672242395579815,0.04864010959863663,0.1556941568851471
1788093360089808400,4.098808349609375,0.04512763395905495,0.0012980876490473747,0.0005345066892914474
1788093360099871500,4.10887158203125,0.05948295816779137,0.021151192486286163,-0.2398407906293869
1788093360109934600,4.1189345703125,0.10743584483861923,-0.09980003535747528,-0.17661628127098083
1788093360119997700,4.128997802734375,-0.011682788841426373,-0.06498073786497116,0.07628174126148224
1788093360130060800,4.139060791015625,0.015195261687040329,-0.07506000995635986,0.2323576956987381
1788093360140124000,4.1491240234375,0.029856016859412193,-0.013973532244563103,0.10132719576358795
1788093360150187300,4.159187255859375,-0.01626427471637726,0.06757691502571106,-0.24106250703334808
1788093360160250400,4.16925048828125,-0.06788235157728195,0.04405862092971802,-0.2596938908100128
1788093360170313500,4.1793134765625,-0.116751529276371,0.06421715766191483,-0.012293653562664986
1788093360180376600,4.18937646484375,-0.09689842909574509,0.04802924394607544,0.3154352903366089
1788093360190439700,4.199439697265625,-0.08223766833543777,0.00954476185142994,0.30077454447746277
1788093360200502800,4.209502685546875,0.02496909722685814,-0.0057268571108579636,0.02893971838057041
1788093360210566000,4.21956591796875,0.007864884100854397,0.12957969307899475,-0.261526495218277
1788093360220629200,4.229629150390625,0.05520690605044365,-0.0371863916516304,-0.14118611812591553
1788093360230692400,4.2396923828125,0.025579962879419327,-0.05520690605044365,-0.060551971197128296
1788093360240755500,4.24975537109375,0.017027854919433594,-0.040546149015426636,-0.017486004158854485
1788093360250818600,4.259818603515625,-0.025121813639998436,-0.08697187155485153,0.005421424750238657
1788093360260881700,4.269881591796875,-0.06635518372058868,-0.00511599238961935,0.07689260691404343
1788093360270945000,4.279945068359375,-0.041615162044763565,0.06238456442952156,0.14592032134532928
1788093360281008000,4.290008056640625,0.009392046369612217,0.03245219215750694,0.13370302319526672
1788093360291071200,4.3000712890625,0.04085158184170723,-0.004199695307761431,-0.025732679292559624
1788093360301134300,4.31013427734375,0.060093823820352554,-0.000839939049910754,-0.2722166180610657
1788093360311197400,4.320197509765625,0.10499238222837448,-0.10651954263448715,-0.19188790023326874
1788093360321260800,4.3302607421875,-0.0006872228696011007,-0.06559160351753235,0.06742420047521591
1788093360371576600,4.38057666015625,-0.0807105079293251,0.04589121788740158,-0.011377356946468353
1788093360381639700,4.3906396484375,-0.07918334752321243,-0.030772313475608826,0.29619306325912476
1788093360391702800,4.400702880859375,-0.02237292192876339,-0.04390590637922287,0.31207555532455444
1788093360481982000,4.49098193359375,-0.01107192412018776,0.018402300775051117,0.16149736940860748
1788093360503394800,4.512394775390625,0.018860450014472008,0.057497646659612656,-0.3107011020183563
1788093360514891800,4.523891845703125,0.0988837331533432,-0.08116865903139114,-0.17753258347511292
1788093360527344400,4.536344482421875,0.020082179456949234,-0.13309216499328613,0.28672465682029724
1788093360540124200,4.549124267578125,-0.015958841890096664,-0.0371863916516304,0.23357942700386047
1788093360552904200,4.561904296875,0.0628427118062973,0.012904518283903599,-0.1689804643392563
1788093360564451300,4.573451416015625,0.020693045109510422,0.05933023989200592,-0.33513569831848145
1788093360577231000,4.586231201171875,-0.053832460194826126,0.04589121788740158,-0.05719221383333206
1788093360590008300,4.59900830078125,-0.041615162044763565,-0.06711876392364502,0.38934993743896484
1788093360602743800,4.611743896484375,-0.00007635809743078426,-0.015195261687040329,0.2067013680934906
1788093360612806700,4.621806640625,0.0732274129986763,-0.0017562361899763346,-0.22640176117420197
1788093360625410800,4.634410888671875,0.0628427118062973,0.02084576152265072,-0.1683696061372757
1788093360636907800,4.64590771484375,-0.014126247726380825,0.04589121788740158,-0.0449749194085598
1788093360648102400,4.657102294921875,0.02496909722685814,-0.05612320080399513,0.08575014024972916
1788093360660882400,4.66988232421875,0.007864884100854397,-0.08727730810642242,0.07658717036247253
1788093360671146500,4.680146484375,-0.01779143698513508,-0.009086613543331623,0.02588539570569992
1788093360685184300,4.694184326171875,0.03779725730419159,0.034895651042461395,0.17860159277915955
1788093360697964300,4.70696435546875,0.05429060757160187,0.044669486582279205,0.1346193253993988
1788093360708228400,4.717228271484375,0.09033162891864777,-0.0017562361899763346,-0.19219332933425903
1788093360721008400,4.73000830078125,0.1141553521156311,-0.055512335151433945,-0.22701261937618256
1788093360732505000,4.741505126953125,-0.018402300775051117,-0.039018988609313965,-0.09750928729772568
1788093360744957700,4.753957763671875,-0.003741546766832471,-0.0683404952287674,0.27023130655288696
1788093360757737700,4.76673779296875,0.018860450014472008,-0.045738499611616135,0.02283107116818428
1788093360768001800,4.777001708984375,-0.03061959706246853,0.08132137358188629,-0.37117671966552734
1788093360780781800,4.78978173828125,-0.07276926934719086,0.0758235901594162,-0.21235187351703644
1788093360793561600,4.8025615234375,-0.11614066362380981,0.013515383005142212,0.29161158204078674
1788093360806341600,4.815341552734375,-0.031841326504945755,-0.03352120518684387,0.3924042582511902
1788093360816581400,4.825581298828125,0.0243582334369421,0.004963276442140341,0.07658717036247253
1788093360829165800,4.838165771484375,-0.00679587060585618,0.09842558950185776,-0.45853036642074585
1788093360843003000,4.8520029296875,0.0475710928440094,-0.007864884100854397,-0.20563235878944397
1788093360853066200,4.862066162109375,0.06650790572166443,-0.16668972373008728,0.024663666263222694
1788093360865670400,4.87467041015625,0.015195261687040329,-0.05612320080399513,0.12240202724933624
1788093360877167000,4.8861669921875,-0.050778135657310486,0.011682788841426373,0.06742420047521591
1788093360888362000,4.897362060546875,-0.05810851231217384,0.10942115634679794,0.16943861544132233
1788093360901141800,4.910141845703125,-0.04222602769732475,0.026343543082475662,0.22075125575065613
1788093360912689000,4.92168896484375,-0.11003202199935913,-0.039018988609313965,-0.06757691502571106
1788093360925469000,4.934468994140625,-0.0654388889670372,0.19249875843524933,-0.4756345748901367
1788093360938248700,4.947248779296875,-0.07948877662420273,0.008628465235233307,-0.22701261937618256
1788093360948510200,4.95751025390625,-0.16378812491893768,0.026343543082475662,0.2720639109611511
1788093360961245700,4.97024560546875,-0.13446660339832306,0.04955640435218811,0.2977202236652374
1788093360973849900,4.982849853515625,0.014584396965801716,-0.14775292575359344,-0.037033677101135254
1788093360985346600,4.9943466796875,0.016416991129517555,0.10514509677886963,-0.42126762866973877
1788093360996541400,5.00554150390625,0.016416991129517555,0.1631772518157959,-0.14026983082294464
1788093361009321500,5.018321533203125,0.007254019379615784,-0.2222784161567688,0.45043641328811646
1788093361022101200,5.031101318359375,0.0683404952287674,-0.12698352336883545,0.3459785282611847
1788093361032365300,5.041365234375,0.13614648580551147,0.02328922040760517,-0.1482110619544983
1788093361045145300,5.054145263671875,-0.037949975579977036,0.0501672700047493,-0.30398157238960266
1788093361056690000,5.06568994140625,-0.12530364096164703,0.07338013499975204,-0.19280420243740082
1788093361069426000,5.078426025390625,-0.09903645515441895,0.05994110554456711,0.01977674663066864
1788093361082030300,5.0910302734375,-0.0965929925441742,0.0654388889670372,0.09613484144210815
1788093361092294400,5.10129443359375,-0.13507747650146484,0.01779143698513508,0.03260490670800209
1788093361105074400,5.114074462890625,0.061620984226465225,0.060551971197128296,0.20364704728126526
1788093361117829000,5.1268291015625,0.07017309218645096,-0.22105668485164642,0.19998185336589813
1788093361129175000,5.138175048828125,0.12637265026569366,-0.1300378441810608,-0.19219332933425903
1788093361141929700,5.1509296875,0.17463096976280212,0.10942115634679794,-0.3895026445388794
1788093361153275600,5.162275634765625,0.04146244749426842,-0.07933606207370758,-0.17142392694950104
1788093361166055700,5.1750556640625,0.08483384549617767,-0.10987929999828339,0.4479929506778717
1788093361176301300,5.18530126953125,-0.041004300117492676,0.006185005884617567,0.3300960659980774
1788093361188952000,5.1979521484375,0.030466880649328232,-0.09033162891864777,-0.14332415163516998
1788093361202964700,5.21196484375,0.05062541738152504,0.20838125050067902,-0.46036297082901
1788093361224423700,5.233423583984375,-0.05810851231217384,-0.15141810476779938,0.5182424187660217
1788093361235970800,5.244970703125,0.012140937149524689,-0.11293362826108932,0.3795761168003082
1788093361248750800,5.257750732421875,0.05001455545425415,0.008628465235233307,-0.3009272515773773
1788093361262788600,5.27178857421875,-0.03245219215750694,-0.08788817375898361,-0.2966512143611908
1788093361273050000,5.282050048828125,-0.14057525992393494,-0.03413207083940506,-0.18547381460666656
1788093361285786400,5.294786376953125,-0.15523600578308105,-0.12209659814834595,0.0888044685125351
1788093361298365400,5.307365478515625,-0.1631772518157959,-0.07628174126148224,0.083306685090065
1788093361308428500,5.317428466796875,-0.22120940685272217,-0.15691588819026947,-0.04130972921848297
1788093361321032700,5.33003271484375,-0.029397867619991302,-0.10010546445846558,0.09124792367219925
1788093361332529700,5.34152978515625,0.16852232813835144,0.10209077596664429,0.10651954263448715
1788093361343724500,5.352724609375,0.17829616367816925,0.0654388889670372,-0.12011128664016724
1788093361356529400,5.365529296875,0.14897464215755463,0.10514509677886963,-0.34063348174095154
1788093361368076500,5.37707666015625,0.1495855152606964,0.019624030217528343,-0.091400645673275
1788093361380856600,5.389856689453125,0.07750347256660461,0.028787001967430115,0.5084685683250427
1788093361391095600,5.400095458984375,-0.053832460194826126,0.15034909546375275,0.3032180070877075
1788093361406410500,5.415410400390625,0.023136503994464874,0.12530364096164703,-0.23067781329154968
1788093361416609300,5.425609375,0.012751801870763302,0.1992182731628418,-0.450589120388031
1788093361429213400,5.43821337890625,-0.08009964227676392,0.18150319159030914,-0.04864010959863663
1788093361440710100,5.449710205078125,-0.08376483619213104,0.04283689334988594,0.5298488140106201
1788093361451905000,5.460905029296875,0.0029779658652842045,0.10086904466152191,0.3924042582511902
1788093361463452200,5.4724521484375,-0.015347977168858051,0.0501672700047493,-0.15676318109035492
1788093361476232000,5.48523193359375,-0.10819942504167557,0.23892448842525482,-0.3430769443511963
1788093361487779300,5.496779296875,-0.0862082913517952,0.21815508604049683,-0.1170569658279419
1788093361500559000,5.50955908203125,-0.08315397053956985,0.053832460194826126,0.18287764489650726
1788093361512097300,5.52109716796875,-0.07643445581197739,0.04528035223484039,0.16821688413619995
1788093361526047700,5.5350478515625,-0.051389001309871674,0.10392337292432785,-0.03764454275369644
1788093361538626800,5.547626708984375,0.015806125476956367,0.07338013499975204,0.1395062506198883
1788093361548690400,5.5576904296875,0.05062541738152504,-0.05062541738152504,0.24396412074565887
1788093361561269500,5.57026953125,0.08727730810642242,-0.09155336022377014,-0.006490438245236874
1788093361573873700,5.582873779296875,0.048792824149131775,0.03672824427485466,-0.39622217416763306
1788093361585370600,5.59437060546875,0.06528617441654205,0.08132137358188629,-0.17447824776172638
1788093361596565200,5.605565185546875,-0.05199986323714256,0.0709366723895073,0.28244858980178833
1788093361609320200,5.6183203125,-0.050778135657310486,0.0019089524867013097,0.42416924238204956
1788093361620666000,5.629666015625,0.07139482349157333,-0.045738499611616135,0.02283107116818428
1788093361632188200,5.641188232421875,0.02130390889942646,-0.0029779658652842045,-0.4145480990409851
1788093361644993000,5.653992919921875,-0.0025198173243552446,-0.05917752534151077,-0.23067781329154968
1788093361656540400,5.66554052734375,0.032910339534282684,-0.129426971077919,0.3239873945713043
1788093361669314600,5.678314453125,0.15691588819026947,-0.06223184987902641,0.3972911834716797
1788093361682054700,5.6910546875,0.2479347437620163,-0.061620984226465225,-0.11461350321769714
1788093361693551600,5.702551513671875,0.3053560256958008,-0.2015090137720108,-0.15065452456474304
1788093361704746200,5.713746337890625,0.1495855152606964,0.1735619604587555,0.033826638013124466
1788093361717501000,5.7265009765625,0.07078395783901215,0.03672824427485466,0.04543306678533554
1788093361728847000,5.73784716796875,0.15263983607292175,-0.2589302957057953,0.04176788032054901
1788093361741601800,5.750601806640625,0.054901473224163055,-0.03840812295675278,-0.03581194952130318
1788093361752947700,5.76194775390625,-0.13080142438411713,0.09476039558649063,-0.10422880202531815
1788093361765727500,5.7747275390625,-0.09964732080698013,0.031230462715029716,0.11873684078454971
1788093361775991800,5.78499169921875,0.05367974191904068,-0.026801692321896553,0.18226677179336548
1788093361788772000,5.797772216796875,0.09460768103599548,0.09048434346914291,0.09796743839979172
1788093361802807300,5.811807373046875,0.09460768103599548,-0.12881611287593842,-0.29909467697143555
1788093361812853200,5.821853271484375,-0.025732679292559624,-0.0005345066892914474,-0.1885281354188919
1788093361825457400,5.83445751953125,-0.09476039558649063,0.04528035223484039,-0.173256516456604
1788093361836954000,5.8459541015625,-0.008017600513994694,-0.13736821711063385,0.2738964855670929
1788093361848149000,5.85714892578125,-0.03245219215750694,0.021456625312566757,0.4314996004104614
1788093361862186800,5.871186767578125,0.10865757614374161,0.1222493126988411,-0.1842520833015442
1788093361872450800,5.881450927734375,0.06528617441654205,0.010461059398949146,-0.23739732801914215
1788093361885231000,5.894231201171875,-0.004352411720901728,0.0006872228696011007,-0.39805474877357483
1788093361898011100,5.90701123046875,-0.019624030217528343,-0.1092684343457222,-0.14637847244739532
1788093361908275200,5.917275146484375,-0.07765618711709976,-0.13309216499328613,0.27023130655288696
1788093361921055500,5.930055419921875,-0.028176138177514076,0.03672824427485466,0.033826638013124466
1788093361932552400,5.941552490234375,0.1092684343457222,-0.10682497918605804,-0.018096869811415672
1788093361943747000,5.9527470703125,0.1349247545003891,-0.12026400119066238,-0.10483966767787933
1788093361956552200,5.96555224609375,-0.13629920780658722,-0.06223184987902641,-0.036422811448574066
1788093361968099300,5.977099365234375,-0.05566505342721939,-0.021914774551987648,-0.07002037763595581
1788093361980879400,5.98987939453125,0.0475710928440094,-0.13125957548618317,0.10774127393960953
1788093361991118300,6.000118408203125,0.1807396113872528,-0.2118937224149704,-0.12927426397800446
1788093362006439200,6.015439208984375,0.14714205265045166,0.00007635809743078426,0.432110458612442
1788093362017777000,6.02677685546875,-0.02023489587008953,0.11308634281158447,0.16882775723934174
1788093362030474000,6.039473876953125,0.029856016859412193,0.0501672700047493,0.060093823820352554
1788093362040537300,6.049537353515625,0.10743584483861923,-0.028634287416934967,0.02893971838057041
1788093362053141500,6.0621416015625,0.17218750715255737,-0.14592032134532928,0.330706924200058
1788093362064638500,6.073638427734375,-0.028176138177514076,0.0758235901594162,-0.10422880202531815
1788093362075833000,6.0848330078125,0.0011453714687377214,-0.08300124853849411,-0.20746494829654694
1788093362087380200,6.096380126953125,0.11171189695596695,-0.12209659814834595,0.38996079564094543
1788093362100160300,6.10916015625,0.14836378395557404,0.0025198173243552446,-0.19219332933425903
1788093362111707400,6.120707275390625,0.012140937149524689,-0.020693045109510422,-0.3632354736328125
1788093362125745200,6.1347451171875,0.13614648580551147,-0.08239039033651352,0.40401068329811096
1788093362138519600,6.14751953125,0.20517420768737793,0.04222602769732475,-0.07796161621809006
1788093362148719000,6.157718994140625,-0.05871937796473503,-0.0066431546583771706,-0.3027598559856415
1788093362161298200,6.170298095703125,0.018860450014472008,-0.19845469295978546,-0.16165009140968323
1788093362173877200,6.182877197265625,0.34811657667160034,-0.05062541738152504,0.6911171674728394
1788093362186456800,6.195456787109375,-0.09353867173194885,-0.06528617441654205,-0.14882193505764008
1788093362196520200,6.205520263671875,-0.16134466230869293,-0.015806125476956367,-0.2508363425731659
1788093362209124600,6.21812451171875,0.212504580616951,-0.3297906219959259,0.5548942685127258
1788093362221929700,6.2309296875,0.048792824149131775,0.20532692968845367,-0.38644832372665405
1788093362232194000,6.241194091796875,-0.2511417865753174,-0.07139482349157333,-0.5923097729682922
1788093362244974300,6.253974365234375,-0.05627591907978058,-0.3823249936103821,0.38263043761253357
1788093362256521500,6.265521484375,0.25526511669158936,-0.01763872057199478,0.32704174518585205
1788093362269301200,6.27830126953125,-0.2774089574813843,0.08437569439411163,-0.4762454628944397
1788093362282081300,6.291081298828125,-0.30978479981422424,-0.28580835461616516,-0.22090397775173187
1788093362293578000,6.302577880859375,0.2015090137720108,-0.11049016565084457,1.0222058296203613
1788093362304772900,6.31377294921875,-0.13080142438411713,0.2926805913448334,-0.12133301794528961
1788093362317527600,6.326527587890625,-0.3128391206264496,0.22792892158031464,-0.7737365961074829
1788093362328873500,6.33787353515625,-0.021456625312566757,0.11003202199935913,0.6697368621826172
1788093362341628200,6.350628173828125,-0.041004300117492676,0.35621052980422974,-0.25266894698143005
1788093362352974300,6.361974365234375,-0.1735619604587555,0.3268890082836151,0.04848739132285118
1788093362365754000,6.374754150390625,-0.07704532146453857,-0.10987929999828339,0.11262819170951843
1788093362376018400,6.385018310546875,0.41042476892471313,-0.06345357745885849,0.41867145895957947
1788093362388798700,6.397798828125,0.06650790572166443,0.26396992802619934,-0.3223075270652771
1788093362402834400,6.41183447265625,-0.09537126123905182,-0.04146244749426842,-0.02176205813884735
1788093362412884000,6.421884033203125,0.344451367855072,-0.08177952468395233,0.5610029697418213
1788093362425488100,6.434488037109375,0.1960112303495407,0.3720930218696594,-0.20135630667209625
1788093362436984800,6.44598486328125,0.015806125476956367,-0.0628427118062973,-0.2954294681549072
1788093362448179700,6.4571796875,0.19478951394557953,-0.10499238222837448,0.4595993757247925
1788093362460959500,6.46995947265625,0.170965775847435,0.4093557596206665,0.017333287745714188
1788093362471223800,6.480223876953125,-0.08009964227676392,0.17600540816783905,-0.23739732801914215
1788093362485261800,6.49426171875,0.05612320080399513,-0.1508072465658188,0.40462157130241394
1788093362498041900,6.507041748046875,0.17707443237304688,0.39713847637176514,-0.010766491293907166
1788093362508306000,6.517305908203125,-0.02328922040760517,0.2926805913448334,-0.4878518879413605
1788093362521086200,6.530086181640625,-0.11003202199935913,-0.191735178232193,-0.01870773360133171
1788093362532583200,6.541583251953125,0.35727953910827637,-0.09155336022377014,0.5707767605781555
1788093362543778000,6.552778076171875,-0.03611737862229347,0.2804632782936096,-0.5098429918289185
1788093362556583000,6.5655830078125,-0.23281583189964294,-0.05673406645655632,-0.24717116355895996
1788093362568130000,6.577130126953125,0.15752676129341125,-0.06345357745885849,0.7479275465011597
1788093362580910000,6.58991015625,-0.00679587060585618,0.3940841555595398,0.11751510947942734
1788093362592457200,6.601457275390625,-0.19127702713012695,0.10697769373655319,-0.3021489977836609
1788093362605237200,6.6142373046875,0.07261654734611511,-0.03779725730419159,0.15783219039440155
1788093362629248300,6.638248291015625,0.042684175074100494,0.16012293100357056,-0.07124210149049759
1788093362641852700,6.650852783203125,0.11049016565084457,-0.13187043368816376,0.14317142963409424
1788093362652116700,6.66111669921875,0.35727953910827637,0.11919499188661575,0.145614892244339
1788093362664897000,6.67389697265625,0.02130390889942646,0.13080142438411713,-0.3778962194919586
1788093362676444200,6.685444091796875,-0.1534034162759781,-0.08788817375898361,-0.23067781329154968
1788093362689224200,6.69822412109375,0.17340923845767975,-0.14408773183822632,0.40401068329811096
1788093362702004000,6.71100390625,-0.0703258067369461,0.13874267041683197,-0.42187848687171936
1788093362713526500,6.722526611328125,-0.11980585753917694,-0.27053675055503845,-0.4560869038105011
1788093362726109400,6.735109375,0.24610215425491333,-0.13125957548618317,0.7784708142280579
1788093362737455600,6.74645556640625,0.12392919510602951,0.34093889594078064,-0.17142392694950104
1788093362747720000,6.756719970703125,-0.14912736415863037,0.016569707542657852,-0.42859798669815063
1788093362760500200,6.769500244140625,-0.022678354755043983,-0.17157664895057678,0.3972911834716797
1788093362773280000,6.782280029296875,0.1508072465658188,0.32933247089385986,0.30260714888572693
1788093362786060000,6.79506005859375,-0.14668390154838562,0.19127702713012695,-0.052916161715984344
1788093362796324000,6.805323974609375,-0.3000109791755676,-0.17707443237304688,-0.013820815831422806
1788093362809104400,6.8181044921875,0.17707443237304688,-0.06406444311141968,0.34658941626548767
1788093362821909800,6.83090966796875,-0.004963276442140341,0.07154753804206848,-0.37606361508369446
1788093362832173800,6.841173828125,-0.10819942504167557,-0.5533671379089355,-0.3723984360694885
1788093362844954000,6.8539541015625,0.31146466732025146,-0.35727953910827637,0.22624903917312622
1788093362856501200,6.865501220703125,0.10499238222837448,-0.0475710928440094,-0.02909243479371071
1788093362869281300,6.87828125,-0.2645808160305023,-0.4263072609901428,-0.3479638397693634
1788093362882061000,6.89106103515625,-0.11858412623405457,-0.15691588819026947,0.7381537556648254
1788093362893562000,6.90256201171875,-0.26885685324668884,0.2511417865753174,0.3038288652896881
1788093362905994000,6.914993896484375,-0.526030957698822,-0.36827510595321655,-0.3375791609287262
1788093362918573300,6.9275732421875,-0.24197880923748016,-0.22960880398750305,0.5408443808555603
1788093362929894400,6.938894287109375,0.08544471114873886,0.15523600578308105,0.1804341822862625
1788093362942474000,6.951473876953125,-0.016569707542657852,-0.30291256308555603,-0.2343430072069168
1788093362953795000,6.962795166015625,-0.15645773708820343,-0.6779835224151611,-0.26427537202835083
1788093362966375200,6.975375244140625,0.28031057119369507,-0.11720968037843704,0.22319471836090088
1788093362976438800,6.985438720703125,0.09155336022377014,-0.11843141168355942,-0.2764926850795746
1788093362989043200,6.998043212890625,-0.455781489610672,-0.3908770978450775,-0.24594943225383759
1788093363001848300,7.010848388671875,-0.26702427864074707,-0.06467530876398087,0.38446301221847534
1788093363012112400,7.0211123046875,-0.4191296100616455,0.2248746007680893,0.19448406994342804
1788093363024892700,7.033892578125,-0.6989056468009949,-0.3554469347000122,-0.3131445646286011
1788093363036439800,7.045439697265625,-0.33055421710014343,-0.1556941568851471,0.32337653636932373
1788093363049219800,7.0582197265625,0.028634287416934967,0.0965929925441742,-0.08040507882833481
1788093363060739300,7.0697392578125,-0.02695440873503685,-0.4018726646900177,-0.35101816058158875
1788093363073324800,7.08232470703125,0.03962985426187515,-0.3132972717285156,0.21036656200885773
1788093363084821500,7.093821533203125,0.2632063627243042,0.33421939611434937,0.22441644966602325
1788093363096016400,7.105016357421875,-0.10209077596664429,-0.011530072428286076,0.044211339205503464
1788093363108796400,7.11779638671875,-0.37514734268188477,-0.261984646320343,0.09063705801963806
1788093363121576200,7.130576171875,0.08422297984361649,0.31528258323669434,0.11018473654985428
1788093363133123300,7.142123291015625,-0.028787001967430115,0.041615162044763565,-0.3485747277736664
1788093363145903400,7.1549033203125,-0.20838125050067902,-0.46906778216362,-0.13049599528312683
1788093363156165000,7.1651650390625,0.283975750207901,0.02695440873503685,0.6923388838768005
1788093363168928500,7.177928466796875,0.24121522903442383,0.3323867917060852,-0.037033677101135254
1788093363182941200,7.191941162109375,-0.2810741662979126,-0.3358992636203766,-0.194025918841362
1788093363204400600,7.213400634765625,0.07200568914413452,0.23098324239253998,-0.131717711687088
1788093363228727600,7.2377275390625,-0.014737112447619438,-0.1245400533080101,0.3869064748287201
1788093363241507600,7.250507568359375,0.26687154173851013,0.5345830321311951,0.4162279963493347
1788093363251769300,7.260769287109375,-0.01779143698513508,-0.17707443237304688,0.20731224119663239
1788093363265764900,7.274764892578125,-0.0703258067369461,-0.2638172209262848,0.053985174745321274
1788093363278344200,7.28734423828125,0.18379394710063934,0.23342670500278473,-0.23617559671401978
1788093363289665300,7.298665283203125,-0.03428478538990021,-0.20517420768737793,0.033826638013124466
1788093363302270500,7.3112705078125,-0.3898080885410309,-0.3554469347000122,0.19020801782608032
1788093363313767200,7.32276708984375,0.2430478185415268,0.35010188817977905,0.5341249108314514
1788093363324962000,7.333962158203125,0.07261654734611511,-0.3310123383998871,-0.17020219564437866
1788093363335226400,7.344226318359375,-0.30917394161224365,-0.8386409878730774,-0.5122864842414856
1788093363348006400,7.35700634765625,0.06101011857390404,-0.30779948830604553,-0.19158247113227844
1788093363362044200,7.371044189453125,0.13553562760353088,0.08865175396203995,-0.3742310404777527
1788093363373390300,7.382390380859375,-0.4136318266391754,-0.6883682608604431,-0.2196822464466095
1788093363386170000,7.395170166015625,-0.08132137358188629,-0.018860450014472008,0.5866592526435852
1788093363396432000,7.405431884765625,0.1599702090024948,0.3568213880062103,0.060093823820352554
1788093363409170400,7.41817041015625,-0.2297615110874176,-0.5448150038719177,-0.4762454628944397
1788093363421749800,7.430749755859375,-0.3006218373775482,-0.16424626111984253,0.0295505840331316
1788093363431813600,7.440813720703125,0.10682497918605804,0.4960985481739044,0.4180605709552765
1788093363445651000,7.45465087890625,-0.09964732080698013,-0.0939968153834343,0.32704174518585205
1788093363458230500,7.46723046875,-0.24320054054260254,-0.3462839722633362,0.043600473552942276
1788093363468294100,7.477294189453125,0.28703010082244873,0.3171151876449585,0.1401171088218689
1788093363480898300,7.489898193359375,0.24365869164466858,0.27985242009162903,-0.013209951110184193
1788093363492395000,7.50139501953125,-0.1631772518157959,0.004352411720901728,-0.04253146052360535
1788093363504848000,7.513847900390625,0.2827540338039398,0.3000109791755676,0.027107125148177147
1788093363517627600,7.526627685546875,0.042684175074100494,0.1430187225341797,-0.4298197329044342
1788093363527892000,7.53689208984375,-0.20593778789043427,-0.30657777190208435,-0.15187625586986542
1788093363540672300,7.54967236328125,0.2430478185415268,0.3165042996406555,0.46204283833503723
1788093363553452000,7.5624521484375,0.4623482823371887,0.41790786385536194,-0.33941173553466797
1788093363566231800,7.575231689453125,0.020082179456949234,-0.05917752534151077,-0.17020219564437866
1788093363576471800,7.585471923828125,0.09705114364624023,0.15401428937911987,0.16882775723934174
1788093363589081900,7.598081787109375,0.4269181191921234,0.41179922223091125,-0.39255696535110474
1788093363601887000,7.610886962890625,0.20883940160274506,-0.02802342176437378,-0.1634826809167862
1788093363612151300,7.6211513671875,0.04024071618914604,0.05566505342721939,0.1963166743516922
1788093363624931600,7.633931640625,0.6150645017623901,0.7948114275932312,0.247629314661026
1788093363636478700,7.645478759765625,0.354225218296051,0.36048656702041626,0.01000291109085083
1788093363649258500,7.658258544921875,0.03352120518684387,0.11491893976926804,0.06559160351753235
1788093363662038500,7.67103857421875,0.5729147791862488,0.7129555344581604,-0.11827868968248367
1788093363672302800,7.681302734375,0.3346775472164154,0.40202537178993225,-0.2862665057182312
1788093363685083100,7.694083251953125,0.02130390889942646,0.0703258067369461,-0.2202931046485901
1788093363697863000,7.70686279296875,0.7470112442970276,0.745942234992981,0.5493965148925781
1788093363708127200,7.717127197265625,0.6199513673782349,0.5199222564697266,-0.8458186388015747
1788093363720907500,7.729907470703125,0.04634936526417732,0.0703258067369461,-0.15554144978523254
1788093363732433700,7.74143359375,0.1398116797208786,0.20654866099357605,0.09980003535747528
1788093363745067500,7.754067626953125,0.6431642770767212,0.5461894869804382,-0.6986002326011658
1788093363755331800,7.764331787109375,0.16424626111984253,0.23648102581501007,-0.033368486911058426
1788093363768111900,7.77711181640625,-0.11919499188661575,0.21571162343025208,0.22808164358139038
1788093363782175000,7.791175048828125,0.632168710231781,0.5675697326660156,0.03627009689807892
1788093363792439000,7.80143896484375,0.5038870573043823,0.2816850244998932,-0.29359689354896545
1788093363805219300,7.81421923828125,-0.061162836849689484,0.10575596243143082,-0.1011744812130928
1788093363816742100,7.8257421875,0.12087486684322357,0.189444437623024,-0.20013457536697388
1788093363829325000,7.838324951171875,0.3304014801979065,0.18028147518634796,-0.13049599528312683
1788093363841904600,7.850904541015625,-0.06910407543182373,0.03917170315980911,-0.131717711687088
1788093363851968300,7.86096826171875,0.1654679924249649,0.38247770071029663,0.23113596439361572
1788093363865805300,7.874805419921875,0.1300378441810608,0.2822958827018738,-0.18974986672401428
1788093363878385200,7.88738525390625,-0.16073378920555115,0.1265253722667694,-0.05413788929581642
1788093363889706000,7.8987060546875,0.1550832986831665,0.4753291606903076,0.14622575044631958
1788093363902311400,7.9113115234375,0.27114760875701904,0.3623191714286804,-0.1219438835978508
1788093363913808100,7.92280810546875,0.10987929999828339,-0.11720968037843704,-0.3791179656982422
1788093363925003000,7.9340029296875,0.4018726646900177,0.45822495222091675,0.4687623679637909
1788093363948047400,7.95704736328125,0.1960112303495407,-0.0371863916516304,-0.2972620725631714
1788093363962085000,7.971085205078125,0.09216422587633133,0.2248746007680893,0.65935218334198
1788093363973431000,7.98243115234375,0.28519749641418457,0.7795398235321045,0.07658717036247253
1788093363986186000,7.99518603515625,0.17768529057502747,0.16378812491893768,0.006948587018996477
1788093363997532000,8.006531982421874,-0.18455752730369568,0.015958841890096664,-0.2923751473426819
1788093364010309600,8.0193095703125,0.017027854919433594,0.46433359384536743,0.2720639109611511
1788093364020533800,8.02953369140625,0.170965775847435,0.3574322462081909,0.004505127668380737
1788093364033138200,8.04213818359375,-0.05933023989200592,-0.09338594973087311,-0.35957029461860657
1788093364044635100,8.05363525390625,0.1037706509232521,0.09964732080698013,0.11751510947942734
1788093364055830000,8.064830078125,0.19234605133533478,0.25358524918556213,-0.22762349247932434
1788093364067377200,8.076377197265625,-0.031841326504945755,-0.2534325122833252,-0.3516290485858917
1788093364080157000,8.089156982421875,-0.08193223923444748,0.12408190965652466,0.31848961114883423
1788093364091704000,8.1007041015625,0.14836378395557404,0.48327040672302246,0.05826122686266899
1788093364105741800,8.114741943359375,-0.012904518283903599,-0.04512763395905495,-0.2599993348121643
1788093364118496800,8.127496826171875,-0.26213735342025757,0.08132137358188629,0.5292379856109619
1788093364128584700,8.137584716796875,0.30107998847961426,0.7764855027198792,0.6562978625297546
1788093364142622500,8.15162255859375,0.20334161818027496,0.014737112447619438,0.43516480922698975
1788093364153935000,8.16293505859375,-0.251752644777298,-0.18806999921798706,-0.6821069121360779
1788093364166456300,8.175456298828125,0.09155336022377014,0.4038579761981964,0.7686969637870789
1788093364176520000,8.18552001953125,0.18379394710063934,0.41118836402893066,-0.839709997177124
1788093364189124600,8.19812451171875,-0.18455752730369568,-0.2980256676673889,0.07353284955024719
1788093364201929700,8.2109296875,-0.3232238292694092,0.0019089524867013097,0.3154352903366089
1788093364212193800,8.22119384765625,0.10132719576358795,0.48937904834747314,0.17310380935668945
1788093364224974000,8.23397412109375,-0.0910952091217041,-0.3157407343387604,-0.1628718227148056
1788093364236521200,8.245521240234375,-0.3592648506164551,-0.1856265366077423,0.010613775812089443
1788093364249301200,8.25830126953125,-0.15401428937911987,0.5235874652862549,0.3258199989795685
1788093364260820700,8.26982080078125,-0.16195552051067352,-0.20334161818027496,0.1498909443616867
1788093364273407500,8.282407470703125,-0.17417281866073608,-0.21616977453231812,0.08208495378494263
1788093364284904200,8.293904296875,0.1404225379228592,0.2914588451385498,-0.17997603118419647
1788093364296099000,8.30509912109375,-0.14485131204128265,-0.2277761995792389,-0.35040730237960815
1788093364308878800,8.31787890625,-0.474718302488327,-0.33345580101013184,0.24090979993343353
1788093364321633800,8.3306337890625,0.19295690953731537,0.34582582116127014,-0.0016035200096666813
1788093364332979700,8.341979736328126,-0.022678354755043983,-0.12148573249578476,-0.6143009066581726
1788093364345759500,8.354759521484375,-0.47410741448402405,-0.42019861936569214,0.16699515283107758
1788093364356023800,8.36502392578125,-0.07399099320173264,0.3067304790019989,0.7864120602607727
1788093364368804000,8.37780419921875,-0.053832460194826126,0.2566395699977875,-0.26916229724884033
1788093364382839800,8.39183984375,-0.3800342381000519,-0.488004595041275,0.011224640533328056
1788093364392888600,8.401888671875,-0.37087127566337585,-0.035964664071798325,0.2317468225955963
1788093364405492700,8.41449267578125,0.23021966218948364,0.4802160859107971,0.01183550525456667
1788093364416989400,8.425989501953126,0.14286600053310394,-0.25037819147109985,0.4119519293308258
1788093364428184300,8.437184326171876,-0.25786128640174866,-0.4421897530555725,-0.5116755962371826
1788093364442222000,8.45122216796875,0.2638172209262848,0.43684467673301697,0.4388299882411957
1788093364452486100,8.461486083984376,0.0781143307685852,0.07826705276966095,-0.11766783148050308
1788093364465266400,8.474266357421875,-0.5962803959846497,-0.5044979453086853,-0.44875654578208923
1788093364478021400,8.487021484375,-0.05810851231217384,0.10819942504167557,0.2977202236652374
1788093364489367300,8.4983671875,-0.015347977168858051,0.20044000446796417,-0.30886849761009216
1788093364502122000,8.5111220703125,-0.36598435044288635,-0.5179370045661926,-0.1011744812130928
1788093364513468000,8.522468017578126,-0.21571162343025208,-0.11293362826108932,0.14317142963409424
1788093364526224000,8.535223876953125,0.18806999921798706,0.270689457654953,0.1297324001789093
1788093364536295700,8.545295654296876,0.0017562361899763346,-0.1807396113872528,0.09674570709466934
1788093364548900000,8.557900146484375,-0.33544111251831055,-0.16241367161273956,-0.29359689354896545
1788093364571592000,8.580592041015626,-0.10270164161920547,0.004352411720901728,0.04176788032054901
1788093364584372000,8.5933720703125,-0.27252206206321716,-0.0988837331533432,-0.20685409009456635
1788093364595919400,8.60491943359375,0.0243582334369421,-0.03413207083940506,0.10224349051713943
1788093364608699100,8.61769921875,0.09338594973087311,0.028176138177514076,-0.30886849761009216
1788093364620246300,8.629246337890624,-0.1320231556892395,-0.20517420768737793,-0.28321218490600586
1788093364633026300,8.6420263671875,-0.03367391973733902,-0.07567087560892105,-0.12988512217998505
1788093364644540000,8.653539794921874,0.012751801870763302,0.21021384000778198,0.3105483949184418
1788093364657084700,8.666084716796876,-0.16378812491893768,-0.14714205265045166,-0.09017891436815262
1788093364669889500,8.6788896484375,-0.06238456442952156,0.07399099320173264,-0.00954476185142994
1788093364681386500,8.690386474609374,0.2381609082221985,0.261526495218277,0.3954585790634155
1788093364692581400,8.701581298828126,-0.06177370250225067,0.003741546766832471,-0.3742310404777527
1788093364705361200,8.714361083984375,-0.011682788841426373,-0.13309216499328613,0.041157014667987823
1788093364718141000,8.727140869140625,0.2638172209262848,0.14668390154838562,0.1559995859861374
1788093364728405200,8.7374052734375,0.08605557680130005,0.04222602769732475,-0.0657443255186081
1788093364741183200,8.750183349609374,0.020693045109510422,-0.039018988609313965,0.02893971838057041
1788093364753922600,8.762922607421874,0.045738499611616135,0.1680641770362854,-0.09873101860284805
1788093364766502000,8.775501953125,0.014584396965801716,0.11919499188661575,0.21036656200885773
1788093364776565800,8.785565673828126,-0.23403756320476532,0.015958841890096664,0.027717988938093185
1788093364789170200,8.798170166015625,0.01030834298580885,0.2352592945098877,0.33315038681030273
1788093364801975300,8.810975341796874,-0.0025198173243552446,0.20715951919555664,0.011224640533328056
1788093364812239600,8.821239501953125,-0.025121813639998436,0.1625663936138153,0.11629338562488556
1788093364825020000,8.83402001953125,0.11110103130340576,0.2969566285610199,0.1450040340423584
1788093364836567000,8.845567138671875,0.09766200929880142,0.14057525992393494,-0.06635518372058868
1788093364849346800,8.858346923828124,0.09644027799367905,0.06666062027215958,0.043600473552942276
1788093364860866600,8.869866455078125,0.020082179456949234,-0.03962985426187515,-0.27832525968551636
1788093364873453600,8.88245361328125,0.12331832945346832,0.41179922223091125,0.3191004991531372
1788093364884950500,8.893950439453125,-0.24381139874458313,-0.0017562361899763346,-0.27343833446502686
1788093364896145200,8.905145263671875,-0.07704532146453857,0.029397867619991302,0.021609341725707054
1788093364908925200,8.91792529296875,-0.05810851231217384,0.1784488707780838,0.15966477990150452
1788093364921680000,8.930679931640626,0.02130390889942646,0.1582903414964676,0.2641226649284363
1788093364933025800,8.94202587890625,0.005421424750238657,0.20838125050067902,0.018555017188191414
1788093364945805600,8.9548056640625,-0.04222602769732475,0.31406086683273315,0.28061601519584656
1788093364956070000,8.96506982421875,-0.06971494108438492,-0.04329504072666168,0.18409937620162964
1788093364968850200,8.97785009765625,-0.04894553869962692,0.35559967160224915,-0.20257803797721863
1788093364982886000,8.991885986328125,0.1856265366077423,0.038560837507247925,-0.019929463043808937
1788093364992935200,9.00193505859375,-0.029397867619991302,0.1839466542005539,-0.31375542283058167
1788093365005539600,9.01453955078125,0.03779725730419159,-0.054901473224163055,0.06986765563488007
1788093365028231200,9.037231201171876,-0.014126247726380825,-0.015195261687040329,0.022220205515623093
1788093365042269000,9.05126904296875,-0.024510949850082397,0.3482692837715149,-0.21784965693950653
1788093365052533200,9.061533203125,-0.3134499788284302,0.015958841890096664,0.1963166743516922
1788093365065313500,9.0743134765625,0.19478951394557953,0.15523600578308105,0.289168119430542
1788093365078068200,9.087068115234375,0.13187043368816376,0.22731806337833405,0.028328854590654373
1788093365089414100,9.0984140625,0.07872519642114639,0.2242637276649475,-0.1989128440618515
1788093365102168800,9.1111689453125,-0.037949975579977036,-0.07444914430379868,0.01672242395579815
1788093365113514800,9.1225146484375,0.2931387424468994,0.23770275712013245,0.17982332408428192
1788093365126271000,9.13527099609375,0.06772962957620621,0.11003202199935913,0.104076087474823
1788093365136343000,9.145343017578124,0.23144139349460602,0.21754421293735504,0.33315038681030273
1788093365148947500,9.157947509765625,0.0035888305865228176,0.4160752594470978,-0.23189954459667206
1788093365162960100,9.171960205078125,0.22838707268238068,0.07276926934719086,0.1969275325536728
1788093365184419800,9.193419921875,0.042684175074100494,-0.15630502998828888,-0.24106250703334808
1788093365195967000,9.204967041015625,0.10560324788093567,0.16745330393314362,-0.09873101860284805
1788093365208747000,9.2177470703125,0.10804671049118042,0.17539454996585846,0.1608865112066269
1788093365220294100,9.229294189453125,0.021914774551987648,0.37026041746139526,-0.19769111275672913
1788093365233074200,9.24207421875,-0.01718057133257389,-0.022525638341903687,-0.03214675933122635
1788093365244587800,9.253587890625,-0.22243113815784454,0.1680641770362854,-0.24411684274673462
1788093365257132300,9.26613232421875,-0.08926261961460114,-0.17951788008213043,0.15355613827705383
1788093365268629200,9.277629150390625,0.012751801870763302,0.21204642951488495,-0.23067781329154968
1788093365279824100,9.28882421875,0.11354449391365051,-0.058566659688949585,0.21342088282108307
1788093365291371300,9.300371337890626,-0.0019089524867013097,0.33421939611434937,-0.14454588294029236
1788093365305409000,9.314408935546876,0.058566659688949585,0.004352411720901728,0.1700494885444641
1788093365316931000,9.32593115234375,0.0005345066892914474,0.1521816849708557,-0.18608468770980835
1788093365328478200,9.337478271484375,-0.07643445581197739,-0.1245400533080101,0.32215481996536255
1788093365341252900,9.3502529296875,-0.003741546766832471,0.17478369176387787,-0.09262236952781677
1788093365351455000,9.360455078125,-0.026343543082475662,-0.1508072465658188,-0.13049599528312683
1788093365365518000,9.37451806640625,-0.36476263403892517,-0.17218750715255737,-0.19219332933425903
1788093365375782400,9.384782470703126,-0.33421939611434937,-0.16363540291786194,0.23846633732318878
1788093365388563000,9.39756298828125,-0.18700097501277924,0.21754421293735504,-0.029703300446271896
1788093365401342700,9.4103427734375,0.06223184987902641,-0.09033162891864777,0.20547963678836823
1788093365411607000,9.42060693359375,-0.013515383005142212,0.2566395699977875,-0.24594943225383759
1788093365425627000,9.434626953125,0.11537708342075348,0.04833467677235603,-0.02909243479371071
1788093365438279700,9.44727978515625,-0.019624030217528343,0.11125374585390091,-0.005268708802759647
1788093365448544000,9.4575439453125,0.0066431546583771706,0.03428478538990021,0.22014039754867554
1788093365461324500,9.470324462890625,-0.19616395235061646,0.010461059398949146,0.16943861544132233
1788093365472872000,9.481871826171876,-0.0006872228696011007,0.17172935605049133,0.1804341822862625
1788093365485651700,9.494651611328125,-0.15034909546375275,-0.018860450014472008,0.08391755074262619
1788093365498431700,9.507431640625,-0.05933023989200592,0.17722713947296143,-0.13355031609535217
1788093365508674600,9.517674560546874,-0.11125374585390091,-0.11537708342075348,0.16455170512199402
1788093365521280300,9.5302802734375,0.09644027799367905,0.34460410475730896,-0.31986406445503235
1788093365533860000,9.542860107421875,-0.06971494108438492,-0.2784779667854309,0.19387321174144745
1788093365546439400,9.555439453125,-0.11736239492893219,0.251752644777298,-0.12438733875751495
1788093365557760500,9.566760498046875,-0.1369100660085678,-0.08788817375898361,0.20059272646903992
1788093365570341000,9.579341064453125,-0.2804632782936096,0.1576794683933258,-0.2251800298690796
1788093365582920700,9.591920654296874,-0.08804088830947876,-0.22044582664966583,0.17737986147403717
1788093365592984800,9.60198486328125,-0.05627591907978058,0.13080142438411713,-0.18119776248931885
1788093365605589200,9.61458935546875,0.013362666592001915,0.054443322122097015,0.20425790548324585
1788093365617086200,9.626086181640625,-0.09353867173194885,0.06177370250225067,0.12728895246982574
1788093365628280800,9.63728076171875,0.02802342176437378,-0.039018988609313965,0.1401171088218689
1788093365641060900,9.650060791015624,-0.03061959706246853,-0.021914774551987648,-0.25816673040390015
1788093365652608000,9.66160791015625,-0.17967060208320618,-0.16791145503520966,-0.3436878025531769
1788093365665387800,9.6743876953125,-0.1992182731628418,-0.1404225379228592,0.19265148043632507
1788093365678142700,9.687142822265624,-0.26335906982421875,0.021456625312566757,0.26656612753868103
1788093365689488600,9.698488525390625,-0.16012293100357056,0.07460185885429382,0.08941533416509628
1788093365702243300,9.711243408203124,-0.026343543082475662,-0.0066431546583771706,-0.15187625586986542
1788093365713587500,9.72258740234375,-0.05566505342721939,-0.06895136088132858,0.26045745611190796
1788093365726329000,9.7353291015625,-0.018402300775051117,0.1222493126988411,0.03138317912817001
1788093365736393200,9.745393310546875,-0.021456625312566757,0.1265253722667694,0.3746891915798187
1788093365748998000,9.757997802734375,0.005421424750238657,0.27313292026519775,0.11018473654985428
1788093365763010300,9.77201025390625,-0.16073378920555115,-0.2644280791282654,-0.24228423833847046
1788093365784470000,9.793469970703125,-0.2450331300497055,-0.24671301245689392,-0.34429866075515747
1788093365796017400,9.805017333984376,-0.20777037739753723,-0.2900844216346741,0.5225184559822083
1788093365808797200,9.817797119140625,-0.04955640435218811,0.2871828079223633,0.11995857208967209
1788093365822835000,9.8318349609375,-0.0012980876490473747,-0.029856016859412193,0.01672242395579815
1788093365833097000,9.842096923828125,0.1251509189605713,-0.08544471114873886,-0.2758817970752716
1788093365845836500,9.85483642578125,-0.051389001309871674,-0.16791145503520966,-0.06452259421348572
1788093365858415900,9.867415771484374,-0.01779143698513508,-0.1300378441810608,0.10957387089729309
1788093365868480000,9.87747998046875,-0.1576794683933258,0.02756527252495289,0.1859319657087326
1788093365881084700,9.890084716796874,-0.04711294546723366,-0.10621411353349686,-0.0553596206009388
1788093365892581400,9.901581298828125,-0.2401462197303772,-0.17463096976280212,-0.10361793637275696
1788093365905034200,9.9140341796875,-0.18028147518634796,-0.21861323714256287,0.043600473552942276
1788093365915298300,9.92429833984375,-0.13019055128097534,-0.09460768103599548,-0.19524765014648438
1788093365928079000,9.9370791015625,0.11598794907331467,-0.012140937149524689,0.2952767610549927
1788093365942142000,9.951141845703125,0.11598794907331467,-0.032910339534282684,-0.03520108386874199
1788093365952406300,9.96140625,-0.14546217024326324,0.16439898312091827,-0.245338574051857
1788093365965186800,9.974186767578125,-0.11125374585390091,-0.1043815165758133,-0.16409355401992798
1788093365976703500,9.985703369140625,-0.11430807411670685,-0.18196134269237518,0.2525162398815155
1788093365989245200,9.9982451171875,-0.10270164161920547,-0.051847148686647415,0.34658941626548767
1788093366001824800,10.01082470703125,-0.022678354755043983,0.04528035223484039,0.027107125148177147
1788093366011888600,10.020888671875,0.07506000995635986,0.09537126123905182,0.12056943774223328
1788093366025726200,10.034726318359375,0.25037819147109985,0.0758235901594162,0.11079560220241547
1788093366038305800,10.047305908203125,-0.0006872228696011007,-0.08483384549617767,-0.34063348174095154
1788093366049627000,10.058626953125,-0.095982126891613,0.13324488699436188,0.049709122627973557
1788093366062232600,10.071232666015625,-0.04894553869962692,0.15706861019134521,0.16149736940860748
1788093366073729300,10.082729248046874,0.01030834298580885,-0.06711876392364502,0.16210824251174927
1788093366084924200,10.093924072265626,0.023136503994464874,-0.03168861195445061,-0.0022143847309052944
1788093366097704200,10.1067041015625,-0.16500984132289886,-0.03168861195445061,-0.03214675933122635
1788093366107968300,10.11696826171875,0.16730059683322906,0.10697769373655319,0.13156500458717346
1788093366120749000,10.1297490234375,0.14225514233112335,-0.21922409534454346,-0.08223766833543777
1788093366133528800,10.14252880859375,0.08544471114873886,-0.14103341102600098,-0.34613126516342163
1788093366146308900,10.155308837890624,0.0023671009112149477,0.0758235901594162,0.1297324001789093
1788093366156548900,10.165548828125,0.03168861195445061,-0.21494804322719574,0.006337722297757864
1788093366169160200,10.17816015625,0.11110103130340576,0.03061959706246853,0.3765217661857605
1788093366181965600,10.190965576171875,-0.08804088830947876,0.22609633207321167,0.15355613827705383
1788093366192229600,10.201229736328125,0.05612320080399513,0.06971494108438492,0.015500693581998348
1788093366205010400,10.214010498046875,0.2833648920059204,-0.2015090137720108,-0.1115591824054718
1788093366217790200,10.226790283203124,0.09766200929880142,-0.01763872057199478,-0.04864010959863663
1788093366228054500,10.237054443359375,0.09827287495136261,0.1430187225341797,0.5304597020149231
1788093366240835000,10.2498349609375,0.014584396965801716,0.09842558950185776,-0.3638463318347931
1788093366252332800,10.261332763671875,-0.026343543082475662,-0.1862373948097229,-0.15187625586986542
1788093366265999400,10.274999267578124,-0.21632249653339386,-0.37377288937568665,-0.1323285847902298
1788093366278579000,10.287578857421876,-0.34032803773880005,0.26274821162223816,0.2427423894405365
1788093366289900000,10.298900146484375,0.012140937149524689,0.17111849784851074,0.31848961114883423
1788093366313801500,10.322801513671875,0.009086613543331623,-0.02802342176437378,-0.6564505696296692
1788093366326382000,10.335382080078125,0.11049016565084457,-0.06650790572166443,-0.005268708802759647
1788093366336446200,10.3454462890625,-0.007406735327094793,-0.3132972717285156,0.08208495378494263
1788093366349051000,10.35805078125,0.09094249457120895,-0.015806125476956367,0.4382191300392151
1788093366361856000,10.37085595703125,-0.014737112447619438,0.05871937796473503,0.31177011132240295
1788093366372120300,10.381120361328126,-0.06604975461959839,0.24808746576309204,-0.13355031609535217
1788093366384900900,10.39390087890625,0.07444914430379868,0.08009964227676392,0.26045745611190796
1788093366396448000,10.405447998046874,-0.12591449916362762,-0.12148573249578476,-0.39072439074516296
1788093366409228000,10.41822802734375,-0.23648102581501007,0.034895651042461395,-0.2545015513896942
1788093366422008000,10.431008056640625,-0.05994110554456711,-0.03535379841923714,-0.036422811448574066
1788093366432272100,10.441272216796875,0.1349247545003891,-0.10193806141614914,0.31177011132240295
1788093366445053000,10.454052978515625,0.05612320080399513,0.015958841890096664,0.16943861544132233
1788093366457832700,10.466832763671874,0.015806125476956367,0.09353867173194885,-0.026038112118840218
1788093366468097000,10.477096923828125,0.04329504072666168,0.04955640435218811,0.09735657274723053
1788093366480877600,10.489877685546874,0.07261654734611511,-0.0035888305865228176,0.05459604039788246
1788093366492404200,10.501404296875,-0.02390008419752121,0.008017600513994694,0.13278673589229584
1788093366505040000,10.514039794921874,-0.09231694042682648,0.19555309414863586,-0.24411684274673462
1788093366515304200,10.52430419921875,0.13675735890865326,-0.030466880649328232,0.2946659028530121
1788093366528084700,10.537084716796874,-0.1014799103140831,-0.26503896713256836,-0.29420775175094604
1788093366542147600,10.551147705078124,-0.20532692968845367,0.14607304334640503,-0.046807512640953064
1788093366552412000,10.561411865234374,0.09705114364624023,-0.0781143307685852,0.2323576956987381
1788093366565192400,10.5741923828125,0.16913318634033203,0.057497646659612656,0.16455170512199402
1788093366576715300,10.58571533203125,0.15813761949539185,0.09292780607938766,-0.1628718227148056
1788093366589299200,10.59829931640625,0.0322994738817215,0.0025198173243552446,0.07780890166759491
1788093366601879000,10.610879150390625,-0.19127702713012695,-0.20578506588935852,-0.09689842909574509
1788093366611943200,10.620943115234375,-0.20838125050067902,-0.07078395783901215,0.17737986147403717
1788093366625780700,10.63478076171875,-0.12163844704627991,-0.026190826669335365,0.14133884012699127
1788093366638360300,10.6473603515625,-0.015347977168858051,0.10514509677886963,-0.36201372742652893
1788093366649681400,10.658681396484376,0.11782054603099823,-0.20273074507713318,-0.1983019858598709
1788093366662287000,10.671287109375,0.039018988609313965,-0.24610215425491333,-0.07612902671098709
1788093366684978700,10.693978759765624,0.05978839099407196,-0.1300378441810608,-0.1634826809167862
1788093366695243000,10.704242919921874,-0.09476039558649063,-0.13125957548618317,-0.070631243288517
1788093366708023600,10.7170234375,-0.19677481055259705,0.22731806337833405,0.15172353386878967
1788093366722086400,10.73108642578125,-0.04650207981467247,-0.01824958436191082,0.03321577236056328
1788093366732350700,10.741350830078124,0.21067199110984802,-0.10193806141614914,-0.01259908638894558
1788093366745131300,10.75413134765625,0.28641921281814575,-0.0005345066892914474,0.24946190416812897
1788093366756648200,10.765648193359375,0.09155336022377014,0.18516838550567627,0.4382191300392151
1788093366769190100,10.778190185546874,-0.13874267041683197,0.2041051983833313,-0.2447277009487152
1788093366781770000,10.79077001953125,-0.1118646115064621,-0.11293362826108932,-0.01565340906381607
1788093366791834000,10.800834228515624,-0.13141228258609772,-0.3249036967754364,-0.22090397775173187
1788093366805671400,10.81467138671875,-0.0758235901594162,0.06360629200935364,-0.06452259421348572
1788093366818251500,10.82725146484375,0.048792824149131775,0.05566505342721939,-0.06940951198339462
1788093366828315600,10.837315673828124,0.2790888547897339,-0.13797907531261444,0.072921983897686
1788093366840920000,10.849920166015625,0.06895136088132858,-0.03352120518684387,-0.24228423833847046
1788093366852416800,10.861416748046874,0.06650790572166443,0.15034909546375275,0.17799071967601776
1788093366864869600,10.87386962890625,-0.014126247726380825,-0.010919207707047462,0.08513928204774857
1788093366877624300,10.886624267578124,-0.03306305781006813,-0.06406444311141968,0.018555017188191414
1788093366887712300,10.896712158203124,-0.20288346707820892,0.0703258067369461,0.020998476073145866
1788093366901750000,10.91075,0.08483384549617767,0.14851650595664978,0.030772313475608826
1788093366913096000,10.922095947265625,0.12881611287593842,-0.22105668485164642,0.114460788667202
1788093366925876000,10.9348759765625,-0.004963276442140341,-0.19417864084243774,-0.26244276762008667
1788093366936140300,10.945140380859375,0.09644027799367905,0.12530364096164703,-0.11400263756513596
1788093366948920800,10.9579208984375,0.09766200929880142,-0.14164426922798157,-0.1842520833015442
1788093366962953700,10.97195361328125,-0.04405862092971802,-0.13370302319526672,-0.04558578506112099
1788093366972983300,10.9819833984375,-0.054443322122097015,0.06604975461959839,0.27023130655288696
1788093366985587700,10.994587646484375,-0.02390008419752121,0.15951207280158997,0.2946659028530121
1788093366997084700,11.006084716796876,-0.010461059398949146,0.095982126891613,0.16210824251174927
1788093367008279600,11.017279541015625,0.05306887626647949,-0.02496909722685814,-0.11400263756513596
1788093367022317300,11.0313173828125,0.042684175074100494,0.010461059398949146,0.28122687339782715
1788093367032581400,11.041581298828126,0.1245400533080101,0.1576794683933258,0.07108938694000244
1788093367045362200,11.054362060546875,0.07017309218645096,-0.12820523977279663,-0.3223075270652771
1788093367058142000,11.067141845703125,0.004810560029000044,-0.35361436009407043,-0.3375791609287262
1788093367068406300,11.07740625,-0.07704532146453857,-0.129426971077919,-0.3943895697593689
1788093367081162800,11.090162841796875,-0.021456625312566757,-0.19234605133533478,0.072921983897686
1788093367093749200,11.102749267578124,-0.04833467677235603,-0.13675735890865326,0.2378554791212082
1788093367106329000,11.1153291015625,0.0683404952287674,0.321391224861145,0.33803731203079224
1788093367116393000,11.12539306640625,0.05978839099407196,0.03061959706246853,-0.28321218490600586
1788093367128998000,11.137997802734375,0.23449571430683136,0.06971494108438492,0.2836703360080719
1788093367143010300,11.15201025390625,0.29069527983665466,0.095982126891613,0.12789981067180634
1788093367164470300,11.17347021484375,0.17218750715255737,-0.05429060757160187,0.053374309092760086
1788093367176017400,11.185017333984375,0.04512763395905495,0.06666062027215958,0.3600284159183502
1788093367188797200,11.197797119140626,0.03840812295675278,0.19188790023326874,0.2121991515159607
1788093367201577200,11.2105771484375,0.06345357745885849,0.08987347781658173,-0.5923097729682922
1788093367211839200,11.220839111328125,0.07689260691404343,0.09476039558649063,0.19204062223434448
1788093367225837000,11.234837158203124,-0.11614066362380981,-0.06345357745885849,-0.0907897800207138
1788093367238417200,11.247417236328126,-0.14362958073616028,0.06360629200935364,-0.43165233731269836
1788093367249738200,11.25873828125,-0.04039343446493149,-0.3053560256958008,-0.002825249684974551
1788093367262343700,11.27134375,0.22533275187015533,-0.048792824149131775,-0.037033677101135254
1788093367273840600,11.282840576171875,0.13920080661773682,0.0703258067369461,-0.081015944480896
1788093367285035500,11.294035400390625,0.10193806141614914,0.04039343446493149,-0.05169443041086197
1788093367295299600,11.304299560546875,0.18806999921798706,0.13141228258609772,0.26656612753868103
1788093367308080400,11.317080322265625,0.03107774630188942,0.3372737169265747,0.1352301836013794
1788093367322143200,11.331143310546874,-0.1680641770362854,0.04589121788740158,-0.1530979871749878
1788093367332407600,11.341407470703125,-0.13141228258609772,-0.16730059683322906,-0.1683696061372757
1788093367345188000,11.35418798828125,-0.05322159454226494,-0.28519749641418457,-0.09201150387525558
1788093367356705000,11.365705078125,0.06101011857390404,-0.10987929999828339,0.17676898837089539
1788093367369247200,11.378247314453125,0.4012618064880371,0.12469277530908585,-0.03275762498378754
1788093367381827000,11.3908271484375,0.32734715938568115,0.06666062027215958,-0.1787542998790741
1788093367391891200,11.40089111328125,-0.15095995366573334,-0.22655446827411652,-0.377285361289978
1788093367405728800,11.414728759765625,-0.2975675165653229,0.008628465235233307,0.16638429462909698
1788093367418308600,11.42730859375,-0.00679587060585618,0.15890119969844818,0.4058432877063751
1788093367428372700,11.437372802734375,0.3664425015449524,0.08926261961460114,0.27633994817733765
1788093367440977200,11.44997705078125,0.43058329820632935,0.4411207437515259,-0.2929860055446625
1788093367452474000,11.46147412109375,0.437302827835083,0.23342670500278473,-0.3388008773326874
1788093367464926700,11.4739267578125,-0.1472947746515274,0.00679587060585618,-0.014431680552661419
1788093367477681400,11.486681396484375,-0.3775908052921295,-0.22472187876701355,0.04848739132285118
1788093367487769600,11.49676953125,-0.38675376772880554,-0.2473238706588745,-0.194025918841362
1788093367501807400,11.510807373046875,0.06956222653388977,-0.021914774551987648,-0.2135736048221588
1788093367513153300,11.5221533203125,0.2784779667854309,0.04222602769732475,0.3154352903366089
1788093367525933000,11.53493310546875,0.2430478185415268,0.20227259397506714,0.4369973838329315
1788093367536197400,11.545197265625,0.09644027799367905,0.23770275712013245,-0.11033745110034943
1788093367548978000,11.55797802734375,0.18745912611484528,0.17722713947296143,0.1908188909292221
1788093367563011000,11.572010986328126,0.303523451089859,0.16378812491893768,0.07658717036247253
1788093367573041000,11.582041015625,0.17157664895057678,0.3012326955795288,-0.3840048611164093
1788093367585645300,11.594645263671875,-0.05933023989200592,0.053832460194826126,-0.7321978211402893
1788093367597142300,11.606142333984375,-0.1424078494310379,-0.45074185729026794,-0.8274927139282227
1788093367608337200,11.617337158203124,-0.2713003158569336,-0.2271653413772583,-0.11400263756513596
1788093367621117000,11.630116943359376,-0.270689457654953,-0.2528216540813446,0.1346193253993988
1788093367632664000,11.6416640625,0.014584396965801716,0.08132137358188629,0.40401068329811096
1788093367645444000,11.654444091796876,0.2827540338039398,0.26213735342025757,0.4333322048187256
1788093367658198800,11.66719873046875,0.08422297984361649,0.2456440031528473,0.08452841639518738
1788093367669544700,11.678544677734376,0.03962985426187515,0.3849211633205414,-0.0058795735239982605
1788093367682299400,11.69129931640625,0.11110103130340576,0.03611737862229347,-0.0193185992538929
1788093367693643800,11.702643798828126,0.20334161818027496,-0.0029779658652842045,0.29100072383880615
1788093367706387000,11.715386962890625,0.21494804322719574,0.03550651669502258,-0.15493057668209076
1788093367716451000,11.725451171875,0.14164426922798157,0.06177370250225067,0.10835213959217072
1788093367729056000,11.738055908203124,-0.012904518283903599,0.22609633207321167,0.36919140815734863
1788093367741861000,11.750861083984375,0.05062541738152504,0.26824599504470825,-0.2667188346385956
1788093367752125400,11.76112548828125,0.23021966218948364,0.04528035223484039,-0.0077121676877141
1788093367764906000,11.773906005859375,0.10743584483861923,-0.051847148686647415,-0.31009024381637573
1788093367776453000,11.785453125,0.0322994738817215,0.24136795103549957,-0.091400645673275
1788093367789233200,11.798233154296875,-0.16562071442604065,0.07826705276966095,0.02893971838057041
1788093367802013200,11.81101318359375,0.09705114364624023,0.2951240539550781,0.42539095878601074
1788093367812277500,11.821277587890625,0.0011453714687377214,0.0654388889670372,-0.27893611788749695
1788093367825058000,11.83405810546875,-0.14851650595664978,-0.05062541738152504,-0.316809743642807
1788093367836605200,11.845605224609375,-0.1326340138912201,-0.015195261687040329,0.19265148043632507
1788093367849385200,11.85838525390625,-0.09170607477426529,-0.018860450014472008,0.04787652567028999
1788093367862165000,11.8711650390625,0.013973532244563103,0.0397825688123703,0.3453676700592041
1788093367873688600,11.8826884765625,0.21861323714256287,0.25786128640174866,-0.20563235878944397
1788093367886279200,11.895279052734375,0.4220311939716339,0.32383468747138977,0.17432554066181183
1788093367896343000,11.905343017578126,0.2063959389925003,0.17417281866073608,-0.026038112118840218
1788093367908947700,11.91794775390625,-0.06604975461959839,-0.13736821711063385,-0.6063596606254578
1788093367922960400,11.93196044921875,-0.37087127566337585,-0.19784383475780487,-0.29359689354896545
1788093367944420000,11.953420166015626,-0.28962627053260803,0.08559742569923401,0.09063705801963806
1788093367955967200,11.96496728515625,0.03107774630188942,0.019624030217528343,0.057039499282836914
1788093367968747300,11.977747314453126,0.1404225379228592,-0.10560324788093567,-0.2764926850795746
1788093367980294400,11.98929443359375,0.19723296165466309,0.3183369040489197,0.2213621288537979
1788093367993074400,12.002074462890626,0.06467530876398087,0.10392337292432785,-0.091400645673275
1788093368004588000,12.013588134765625,0.032910339534282684,-0.03352120518684387,0.046654798090457916
1788093368017134300,12.02613427734375,-0.04344775900244713,0.14912736415863037,0.040546149015426636
1788093368028631000,12.037631103515626,0.026190826669335365,0.3323867917060852,0.2726747691631317
1788093368039826000,12.048825927734375,0.15202897787094116,0.35559967160224915,0.3869064748287201
1788093368051373000,12.060373046875,-0.13019055128097534,0.11797326058149338,0.11568251997232437
1788093368065410800,12.074410888671874,-0.2755763828754425,-0.11110103130340576,-0.14882193505764008
1788093368076932900,12.085932861328125,-0.03367391973733902,-0.05123628303408623,-0.3723984360694885
1788093368088480000,12.09747998046875,0.10865757614374161,-0.05978839099407196,-0.005268708802759647
1788093368101255000,12.1102548828125,0.07567087560892105,-0.08422297984361649,0.14928008615970612
1788093368111458600,12.12045849609375,-0.11552979797124863,0.012293653562664986,-0.3113119602203369
1788093368125521700,12.134521728515624,-0.40202537178993225,-0.05917752534151077,-0.02237292192876339
1788093368135786000,12.144785888671874,-0.249920055270195,-0.026190826669335365,0.3606393039226532
1788093368148566500,12.15756640625,0.11110103130340576,0.5223657488822937,0.5139663815498352
1788093368162604300,12.171604248046876,0.1453094631433487,0.2450331300497055,-0.12499820441007614
1788093368172868600,12.18186865234375,-0.0025198173243552446,-0.1856265366077423,-0.8323796391487122
1788093368185649200,12.194649169921876,-0.1521816849708557,-0.3462839722633362,-0.8006146550178528
1788093368197150200,12.206150146484376,-0.17661628127098083,-0.41531169414520264,-0.08529199659824371
1788093368209581600,12.21858154296875,-0.10881029069423676,-0.09216422587633133,0.4883100390434265
1788093368222186500,12.2311865234375,-0.10025817900896072,-0.015195261687040329,0.2720639109611511
1788093368233683500,12.242683349609376,-0.19555309414863586,0.17111849784851074,0.2781725525856018
1788093368244878000,12.253878173828125,-0.10270164161920547,0.20838125050067902,-0.07735075056552887
1788093368257658000,12.266658203125,-0.09292780607938766,0.01718057133257389,0.11873684078454971
1788093368267922400,12.27692236328125,-0.04283689334988594,-0.014584396965801716,0.23907721042633057
1788093368280703000,12.289702880859375,0.10865757614374161,0.044669486582279205,-0.18241949379444122
1788093368293482800,12.302482666015624,0.14286600053310394,-0.150196373462677,-0.409050315618515
1788093368305028000,12.314028076171875,0.07750347256660461,-0.32184937596321106,-0.02848157100379467
1788093368317793300,12.326793212890625,-0.03550651669502258,0.23892448842525482,0.20364704728126526
1788093368329290000,12.3382900390625,-0.1417969912290573,-0.0628427118062973,0.002672533504664898
1788093368340484900,12.34948486328125,-0.22304199635982513,-0.16424626111984253,-0.1530979871749878
1788093368350749200,12.359749267578126,-0.2658025324344635,0.1839466542005539,0.06620246917009354
1788093368364787700,12.37378759765625,-0.13629920780658722,0.1534034162759781,0.24579671025276184
1788093368377567500,12.3865673828125,0.15263983607292175,0.17111849784851074,0.17493639886379242
1788093368387831800,12.396831787109376,0.007864884100854397,0.04589121788740158,-0.39561131596565247
1788093368400612400,12.4096123046875,-0.18211406469345093,-0.2778671085834503,-0.19708025455474854
1788093368412132600,12.421132568359376,-0.343993216753006,-0.3297906219959259,0.11262819170951843
1788093368425955300,12.434955322265624,-0.20227259397506714,0.0397825688123703,0.4638754427433014
1788093368438535200,12.44753515625,0.1190422773361206,0.3128391206264496,0.687451958656311
1788093368449856300,12.458856201171875,0.33712100982666016,0.5046506524085999,0.03932442143559456
1788093368462436900,12.471436767578124,0.284586638212204,0.15645773708820343,-0.13599377870559692
1788093368473758000,12.482758056640625,-0.14118611812591553,-0.4592939615249634,-0.6735547780990601
1788093368486338600,12.495338623046875,-0.23098324239253998,-0.1495855152606964,-0.16165009140968323
1788093368496403000,12.50540283203125,-0.09537126123905182,0.05871937796473503,0.37346744537353516
1788093368509007600,12.518007568359375,0.10987929999828339,-0.11476621776819229,0.00755945174023509
1788093368523020300,12.532020263671875,-0.06360629200935364,-0.026801692321896553,-0.3070359230041504
1788093368544480000,12.55347998046875,-0.251752644777298,-0.029856016859412193,0.49747300148010254
1788093368556027100,12.565027099609376,-0.012904518283903599,0.168675035238266,0.4486038088798523
1788093368568807200,12.57780712890625,0.15325069427490234,0.28962627053260803,0.31665703654289246
1788093368580354300,12.589354248046876,0.274812787771225,0.3891972303390503,0.37896522879600525
1788093368593109000,12.60210888671875,0.18745912611484528,0.22853977978229523,0.2170860767364502
1788093368612228600,12.621228515625,0.07506000995635986,-0.0029779658652842045,-0.08284853398799896
1788093368625008600,12.634008544921874,-0.12530364096164703,-0.09582941234111786,-0.2771035432815552
1788093368637763300,12.646763427734374,-0.2456440031528473,-0.13736821711063385,-0.16592614352703094
1788093368649109200,12.658109130859375,-0.14668390154838562,-0.18318307399749756,-0.3436878025531769
1788093368661864000,12.670864013671874,-0.147905632853508,-0.26687154173851013,-0.30031639337539673
1788093368673209900,12.6822099609375,-0.14118611812591553,-0.28153231739997864,0.2775616943836212
1788093368685990000,12.694989990234374,-0.08437569439411163,0.19677481055259705,-0.04741837829351425
1788093368696253200,12.705253173828124,0.009086613543331623,-0.07628174126148224,0.056428633630275726
1788093368709027600,12.718027587890624,0.10132719576358795,-0.06711876392364502,-0.22701261937618256
1788093368721832700,12.730832763671875,0.061620984226465225,0.2242637276649475,0.010613775812089443
1788093368732097000,12.741096923828126,0.14286600053310394,0.044669486582279205,0.09735657274723053
1788093368744877800,12.7538779296875,-0.015347977168858051,-0.1196531355381012,-0.02909243479371071
1788093368756425000,12.765425048828124,-0.10758855938911438,0.12835796177387238,0.32704174518585205
1788093368769204700,12.778204833984375,-0.09720385819673538,0.04222602769732475,0.14866921305656433
1788093368781984800,12.79098486328125,0.12087486684322357,-0.01030834298580885,-0.23922991752624512
1788093368792249000,12.8012490234375,0.08300124853849411,-0.13614648580551147,-0.25755587220191956
1788093368805029600,12.814029541015625,-0.008628465235233307,-0.06895136088132858,0.1859319657087326
1788093368817809700,12.8268095703125,0.013362666592001915,-0.005421424750238657,0.0295505840331316
1788093368828074000,12.837073974609375,-0.02084576152265072,0.10819942504167557,0.09246965497732162
1788093368840854500,12.8498544921875,-0.09292780607938766,-0.07139482349157333,-0.14882193505764008
1788093368852381200,12.861381103515624,-0.10392337292432785,-0.1092684343457222,-0.5855902433395386
1788093368865018400,12.874018310546875,-0.11858412623405457,-0.26015204191207886,-0.1482110619544983
1788093368875282700,12.88428271484375,0.02741255611181259,-0.30169084668159485,0.08208495378494263
1788093368888063200,12.897063232421875,0.2277761995792389,0.35559967160224915,0.3771326541900635
1788093368902126000,12.9111259765625,0.2876409590244293,0.414242684841156,0.3673588037490845
1788093368912390400,12.921390380859375,0.2485456019639969,0.014126247726380825,-0.1573740392923355
1788093368925171000,12.9341708984375,-0.21021384000778198,-0.1446985900402069,-0.40294167399406433
1788093368936694000,12.945694091796875,-0.4264599680900574,-0.27114760875701904,-0.2807687222957611
1788093368949278500,12.958278564453124,-0.312228262424469,-0.042684175074100494,0.4107302129268646
1788093368961883600,12.970883544921875,0.030466880649328232,0.05566505342721939,0.1859319657087326
1788093368972147700,12.981147705078126,0.0939968153834343,-0.013362666592001915,0.10713040828704834
1788093368984928500,12.993928466796875,0.28092142939567566,-0.05123628303408623,-0.4457022249698639
1788093368997683200,13.00668310546875,0.22288928925991058,-0.12698352336883545,0.14866921305656433
1788093369009029000,13.018029052734375,0.07994692772626877,-0.11476621776819229,0.0057268571108579636
1788093369021809000,13.030808837890625,0.07994692772626877,0.2914588451385498,-0.04069886729121208
1788093369033356300,13.042356201171875,0.010919207707047462,0.15523600578308105,0.11018473654985428
1788093369046115300,13.055115234375,-0.16439898312091827,0.04833467677235603,0.03627009689807892
1788093369056208100,13.0652080078125,-0.21326816082000732,0.04650207981467247,-0.17203480005264282
1788093369068812500,13.0778125,-0.10270164161920547,-0.21494804322719574,-0.09384410083293915
1788093369082825200,13.0918251953125,0.10560324788093567,-0.1966221034526825,0.18287764489650726
1788093369104285000,13.113284912109375,0.20945025980472565,0.2554178237915039,0.2830594778060913
1788093369115832300,13.124832275390625,0.08788817375898361,0.2193768173456192,0.26534438133239746
1788093369128612000,13.137612060546875,-0.19249875843524933,0.04405862092971802,0.09980003535747528
1788093369141392000,13.150391845703124,-0.1986074149608612,0.0807105079293251,0.21281002461910248
1788093369151654100,13.160654052734374,0.005421424750238657,0.168675035238266,-0.15370884537696838
1788093369165652700,13.17465283203125,0.005421424750238657,-0.24121522903442383,-0.4902953505516052
1788093369178232800,13.18723291015625,-0.16928590834140778,-0.704861581325531,-0.8665880560874939
1788093369189554000,13.198553955078125,-0.18700097501277924,-0.3615556061267853,-0.29359689354896545
1788093369202159900,13.211159912109375,-0.09476039558649063,-0.23327398300170898,0.1657734364271164
1788093369213656800,13.22265673828125,0.018860450014472008,0.0397825688123703,0.5518399477005005
1788093369224851500,13.2338515625,-0.06971494108438492,0.23587016761302948,0.0888044685125351
1788093369237606100,13.246606201171875,-0.09476039558649063,0.11369720846414566,-0.2545015513896942
1788093369261732000,13.270732177734375,0.14408773183822632,-0.09033162891864777,0.10224349051713943
1788093369273078000,13.282078125,0.3554469347000122,0.018402300775051117,0.339869886636734
1788093369285858000,13.294858154296875,0.3920988440513611,0.1784488707780838,-0.29848378896713257
1788093369296122000,13.3051220703125,0.15935935080051422,0.17539454996585846,0.1700494885444641
1788093369308903000,13.31790283203125,-0.20593778789043427,0.014126247726380825,0.25007277727127075
1788093369322935800,13.331935791015624,-0.24625486135482788,0.04405862092971802,0.01611155830323696
1788093369332965600,13.341965576171875,-0.1784488707780838,-0.0781143307685852,-0.046196650713682175
1788093369345570600,13.354570556640626,-0.12774710357189178,-0.30169084668159485,-0.2300669401884079
1788093369357067500,13.366067626953125,-0.106366828083992,-0.029856016859412193,-0.3986656367778778
1788093369368262100,13.37726220703125,-0.15157082676887512,-0.2320522516965866,-0.08834631741046906
1788093369382300000,13.3912998046875,-0.0019089524867013097,-0.16791145503520966,0.08147408813238144
1788093369392564200,13.401564208984375,0.061620984226465225,0.11003202199935913,0.3355938494205475
1788093369405345000,13.414344970703125,0.18257221579551697,0.3696495592594147,0.38996079564094543
1788093369418124800,13.427124755859374,0.31696245074272156,0.3110065162181854,0.2629009187221527
1788093369428389000,13.43738916015625,0.19967642426490784,0.08987347781658173,-0.20685409009456635
1788093369441145900,13.450145751953125,-0.13446660339832306,-0.1141553521156311,-0.22395829856395721
1788093369453758000,13.462758056640626,-0.21571162343025208,-0.27053675055503845,-0.09323323518037796
1788093369465254700,13.474254638671875,-0.23098324239253998,-0.1807396113872528,0.20486877858638763
1788093369476449500,13.485449462890625,-0.0019089524867013097,-0.09338594973087311,0.072921983897686
1788093369489229300,13.498229248046876,0.1404225379228592,0.05871937796473503,-0.07429642975330353
1788093369502009300,13.51100927734375,0.06101011857390404,0.041615162044763565,0.10285435616970062
1788093369512273700,13.521273681640626,0.01763872057199478,-0.11354449391365051,0.2164752036333084
1788093369525054200,13.53405419921875,0.16791145503520966,0.34093889594078064,0.2897789776325226
1788093369543004400,13.55200439453125,0.07383827865123749,0.13446660339832306,-0.1738673895597458
1788093369561920000,13.570919921875,-0.2957349121570587,-0.3004691004753113,-0.34124433994293213
1788093369571984100,13.580984130859376,-0.3012326955795288,-0.30657777190208435,-0.19097159802913666
1788093369585822000,13.594822021484376,0.06956222653388977,-0.0683404952287674,0.4217257797718048
1788093369598401500,13.607401611328125,0.2687041461467743,0.23342670500278473,0.3704131245613098
1788093369609722600,13.61872265625,0.19478951394557953,0.22182027995586395,0.24579671025276184
1788093369622303500,13.631303466796876,-0.019013166427612305,-0.09705114364624023,-0.4340957701206207
1788093369633624600,13.64262451171875,-0.12041672319173813,-0.2900844216346741,-0.12316560745239258
1788093369646230500,13.65523046875,0.06223184987902641,-0.02802342176437378,0.2897789776325226
1788093369657727500,13.6667275390625,0.11720968037843704,0.331165075302124,-0.046807512640953064
1788093369668922400,13.67792236328125,0.07750347256660461,-0.07139482349157333,-0.47929978370666504
1788093369681702100,13.6907021484375,-0.13385574519634247,-0.20334161818027496,-0.1482110619544983
1788093369691966500,13.700966552734375,-0.18211406469345093,0.02756527252495289,0.18715369701385498
1788093369704747000,13.7137470703125,-0.09903645515441895,0.10514509677886963,0.31665703654289246
1788093369716294100,13.725294189453125,0.19478951394557953,0.10392337292432785,0.20914483070373535
1788093369729072000,13.738072021484374,0.1251509189605713,0.047723811119794846,-0.29420775175094604
1788093369741812700,13.750812744140624,-0.038560837507247925,-0.14653119444847107,0.0057268571108579636
1788093369751876900,13.760876953125,-0.08437569439411163,-0.12759438157081604,-0.1268308013677597
1788093369765714700,13.774714599609375,-0.03061959706246853,-0.1960112303495407,-0.08712458610534668
1788093369778294500,13.78729443359375,0.03535379841923714,-0.1446985900402069,0.10224349051713943
1788093369788358700,13.797358642578125,0.1343138962984085,0.18639011681079865,-0.2251800298690796
1788093369800963600,13.809963623046874,0.1446985900402069,-0.05612320080399513,-0.08834631741046906
1788093369812460500,13.82146044921875,-0.019624030217528343,-0.22838707268238068,-0.07673988491296768
1788093369824913200,13.8339130859375,-0.16378812491893768,0.18761184811592102,0.34658941626548767
1788093369835177500,13.844177490234374,-0.041004300117492676,0.031230462715029716,0.12301289290189743
1788093369847958000,13.8569580078125,0.16485713422298431,0.08437569439411163,0.01672242395579815
1788093369861995800,13.870995849609375,0.11598794907331467,-0.22105668485164642,-0.3876700699329376
1788093369873341700,13.882341796875,-0.07887791097164154,-0.29741477966308594,0.09002619981765747
1788093369886121700,13.895121826171875,0.03535379841923714,0.14607304334640503,0.26045745611190796
1788093369896384000,13.905384033203125,0.07994692772626877,0.08681915700435638,0.23357942700386047
1788093369909125600,13.918125732421874,0.08483384549617767,0.13874267041683197,-0.11094831675291061
1788093369921706000,13.9307060546875,0.09460768103599548,0.12530364096164703,-0.2862665057182312
1788093369931770000,13.94077001953125,0.03535379841923714,-0.1398116797208786,0.10285435616970062
1788093369945607400,13.954607421875,-0.05810851231217384,-0.06650790572166443,0.2012035846710205
1788093369958212400,13.96721240234375,0.0988837331533432,0.3635408878326416,0.24701844155788422
1788093369969709300,13.978709228515624,0.15447242558002472,-0.010919207707047462,-0.30398157238960266
1788093369980904000,13.989904052734374,-0.00679587060585618,-0.2277761995792389,-0.2300669401884079
1788093369992451300,14.001451416015625,-0.11125374585390091,-0.12576179206371307,0.049709122627973557
1788093370005231000,14.014231201171874,-0.04283689334988594,-0.00847574882209301,0.24518585205078125
1788093370018011000,14.027010986328126,0.2723693251609802,0.20349432528018951,-0.06330086290836334
1788093370028275200,14.037275146484374,0.13614648580551147,0.1534034162759781,-0.0962875634431839
1788093370041054000,14.050053955078125,-0.21510076522827148,-0.11476621776819229,-0.07857248187065125
1788093370053795000,14.062795166015626,-0.2554178237915039,-0.08177952468395233,-0.014431680552661419
1788093370066375000,14.075375,0.0005345066892914474,0.03550651669502258,0.279394268989563
1788093370076439000,14.08543896484375,0.21006113290786743,0.08193223923444748,0.09002619981765747
1788093370089044000,14.0980439453125,0.2430478185415268,0.19982914626598358,-0.33513569831848145
1788093370101849000,14.11084912109375,0.06528617441654205,-0.15386156737804413,-0.1983019858598709
1788093370112113400,14.121113525390625,0.01030834298580885,-0.21922409534454346,0.31177011132240295
1788093370124894000,14.13389404296875,0.029856016859412193,0.2816850244998932,0.46082112193107605
1788093370136441000,14.145441162109375,0.04818195849657059,0.24808746576309204,0.1602756530046463
1788093370149221000,14.15822119140625,0.08177952468395233,0.19555309414863586,-0.07429642975330353
1788093370162001200,14.171001220703126,-0.12041672319173813,-0.24671301245689392,-0.1427132785320282
1788093370172265200,14.18126513671875,-0.2816850244998932,-0.11171189695596695,0.003283398225903511
1788093370185046000,14.1940458984375,-0.0031306820455938578,0.016569707542657852,-0.0009926552884280682
1788093370197800700,14.20680078125,0.1758527010679245,-0.021914774551987648,-0.0193185992538929
1788093370209146600,14.218146728515626,0.22288928925991058,0.019013166427612305,-0.18669554591178894
1788093370221901300,14.2309013671875,0.06528617441654205,0.22792892158031464,-0.1579848974943161
1788093370233247200,14.242247314453126,-0.12163844704627991,-0.04940368980169296,-0.07857248187065125
