time,seconds_elapsed,z,y,x
1788093356128454700,0.13745458984375,0.956250011920929,-36.31875228881836,-23.475000381469727
1788093356138454800,0.147454833984375,1.4250000715255737,-35.90625,-25.725000381469727
1788093356148454700,0.15745458984375,1.4250000715255737,-35.90625,-25.725000381469727
1788093356158454800,0.167454833984375,2.3812501430511475,-35.587501525878906,-23.45625114440918
1788093356168454700,0.17745458984375,-0.581250011920929,-36.46875,-23.606250762939453
1788093356178454800,0.187454833984375,-0.768750011920929,-37.35000228881836,-25.162500381469727
1788093356188454700,0.19745458984375,-0.11250000447034836,-36.03750228881836,-25.106250762939453
1788093356198454800,0.207454833984375,0.8062500357627869,-35.88750076293945,-24.95625114440918
1788093356208454700,0.21745458984375,-0.30000001192092896,-37.48125076293945,-23.662500381469727
1788093356218454800,0.227454833984375,0.20625001192092896,-35.60625076293945,-25.556251525878906
1788093356228454700,0.23745458984375,0.75,-38.51250076293945,-25.068750381469727
1788093356238454800,0.247454833984375,2.0250000953674316,-37.35000228881836,-24.881250381469727
1788093356248454700,0.25745458984375,0,-37.21875,-26.83125114440918
1788093356258454800,0.267454833984375,0.7875000238418579,-37.20000076293945,-24.712501525878906
1788093356268454700,0.27745458984375,2.0250000953674316,-37.33125305175781,-23.231250762939453
1788093356278454800,0.287454833984375,1.5750000476837158,-36.60000228881836,-24.093751907348633
1788093356288454700,0.29745458984375,0.768750011920929,-37.76250076293945,-22.631250381469727
1788093356298454800,0.307454833984375,0.8062500357627869,-36.45000076293945,-23.025001525878906
1788093356308454700,0.31745458984375,2.4937500953674316,-36.900001525878906,-24.412500381469727
1788093356318454800,0.327454833984375,0.1875,-36.618751525878906,-24.543750762939453
1788093356328454700,0.33745458984375,-0.01875000074505806,-38.79375076293945,-23.71875
1788093356338454800,0.347454833984375,0.75,-38.493751525878906,-22.650001525878906
1788093356348454700,0.35745458984375,2.1750001907348633,-37.181251525878906,-23.981250762939453
1788093356358454800,0.367454833984375,3.731250047683716,-37.03125,-24.131250381469727
1788093356368454700,0.37745458984375,0.956250011920929,-37.03125,-23.193750381469727
1788093356378454800,0.387454833984375,1.1062500476837158,-37.181251525878906,-23.36250114440918
1788093356388454700,0.39745458984375,0.75,-38.212501525878906,-24.750001907348633
1788093356398454800,0.407454833984375,-0.09375,-35.587501525878906,-23.137500762939453
1788093356408454700,0.41745458984375,1.818750023841858,-38.8125,-26.45625114440918
1788093356418454800,0.427454833984375,1.0875000953674316,-37.5,-25.33125114440918
1788093356428454700,0.43745458984375,0.8062500357627869,-36.46875,-24.375001907348633
1788093356438454800,0.447454833984375,1.1062500476837158,-36.46875,-24.693750381469727
1788093356448454700,0.45745458984375,3.4312500953674316,-36.63750076293945,-26.981250762939453
1788093356458454800,0.467454833984375,2.4937500953674316,-37.181251525878906,-23.981250762939453
1788093356468454700,0.47745458984375,2.4562501907348633,-38.212501525878906,-25.068750381469727
1788093356478454800,0.487454833984375,0.20625001192092896,-35.60625076293945,-26.156251907348633
1788093356488454700,0.49745458984375,0.8250000476837158,-35.17500305175781,-26.287500381469727
1788093356498454800,0.507454833984375,0.03750000149011612,-36.46875,-23.625
1788093356508454700,0.51745458984375,1.2750000953674316,-36.03750228881836,-25.575000762939453
1788093356518454800,0.527454833984375,1.8375000953674316,-38.212501525878906,-25.818750381469727
1788093356528454700,0.53745458984375,1.256250023841858,-37.05000305175781,-24.562501907348633
1788093356538454800,0.547454833984375,0.7875000238418579,-36.900001525878906,-24.39375114440918
1788093356548454700,0.55745458984375,0.6187500357627869,-37.35000228881836,-24.86250114440918
1788093356558454800,0.567454833984375,1.2750000953674316,-36.01875305175781,-23.45625114440918
1788093356568454700,0.57745458984375,0.3187500238418579,-37.20000076293945,-25.762500762939453
1788093356578454800,0.587454833984375,-0.15000000596046448,-37.05000305175781,-24.093751907348633
1788093356588454700,0.59745458984375,3.8812501430511475,-37.181251525878906,-24.450000762939453
1788093356598454800,0.607454833984375,2.3062500953674316,-38.08125305175781,-25.968751907348633
1788093356608454700,0.61745458984375,2.043750047683716,-36.31875228881836,-24.543750762939453
1788093356618454800,0.627454833984375,1.8750001192092896,-36.48750305175781,-26.36250114440918
1788093356628454700,0.63745458984375,3.3000001907348633,-36.16875076293945,-24.39375114440918
1788093356638454800,0.647454833984375,1.1062500476837158,-36.900001525878906,-23.64375114440918
1788093356648454700,0.65745458984375,2.512500047683716,-35.90625,-26.043750762939453
1788093356658454800,0.667454833984375,1.3312500715255737,-34.29375076293945,-24.450000762939453
1788093356668454700,0.67745458984375,0.6187500357627869,-37.63125228881836,-25.631250381469727
1788093356678454800,0.687454833984375,1.8562500476837158,-37.20000076293945,-25.781251907348633
1788093356688454700,0.69745458984375,1.125,-36.45000076293945,-23.325000762939453
1788093356698454800,0.707454833984375,2.8312501907348633,-36.1875,-24.993751525878906
1788093356708454700,0.71745458984375,1.256250023841858,-36.618751525878906,-25.14375114440918
1788093356718454800,0.727454833984375,1.5937501192092896,-36.01875305175781,-23.17500114440918
1788093356728454700,0.73745458984375,1.5750000476837158,-36.31875228881836,-24.075000762939453
1788093356738454800,0.747454833984375,2.0250000953674316,-37.35000228881836,-25.181251525878906
1788093356748454700,0.75745458984375,2.8125,-36.900001525878906,-25.031251907348633
1788093356758454800,0.767454833984375,-0.15000000596046448,-37.63125228881836,-24.881250381469727
1788093356768454700,0.77745458984375,-0.26250001788139343,-35.88750076293945,-25.256250381469727
1788093356778454800,0.787454833984375,0.65625,-35.60625076293945,-25.856250762939453
1788093356788454700,0.79745458984375,1.3125,-35.00625228881836,-24.48750114440918
1788093356798454800,0.807454833984375,1.8937500715255737,-36.1875,-25.743751525878906
1788093356808454700,0.81745458984375,2.1937501430511475,-36.48750305175781,-26.36250114440918
1788093356818454800,0.827454833984375,1.8750001192092896,-36.900001525878906,-25.312501907348633
1788093356828454700,0.83745458984375,1.256250023841858,-36.63750076293945,-27.562501907348633
1788093356838454800,0.847454833984375,1.0125000476837158,-34.72500228881836,-24.01875114440918
1788093356848454700,0.85745458984375,2.325000047683716,-37.63125228881836,-25.200000762939453
1788093356858454800,0.867454833984375,1.8562500476837158,-37.48125076293945,-24.731250762939453
1788093356868454700,0.87745458984375,-0.28125,-36.1875,-24.975000381469727
1788093356878454800,0.887454833984375,1.2937500476837158,-35.60625076293945,-25.556251525878906
1788093356888454700,0.89745458984375,0.3187500238418579,-37.20000076293945,-25.012500762939453
1788093356898454800,0.907454833984375,2.512500047683716,-36.46875,-23.943750381469727
1788093356908454700,0.91745458984375,-0.3187500238418579,-37.48125076293945,-24.712501525878906
1788093356918454800,0.927454833984375,1.4625000953674316,-34.875,-24.637500762939453
1788093356928454700,0.93745458984375,0.9187500476837158,-38.0625,-24.600000381469727
1788093356938454800,0.947454833984375,1.2375000715255737,-37.06875228881836,-26.531251907348633
1788093356948454700,0.95745458984375,1.5562500953674316,-37.06875228881836,-26.531251907348633
1788093356958454800,0.967454833984375,1.8562500476837158,-37.20000076293945,-25.781251907348633
1788093356968454700,0.97745458984375,1.21875,-38.08125305175781,-26.26875114440918
1788093356978454800,0.987454833984375,-0.75,-36.63750076293945,-26.193750381469727
1788093356988454700,0.99745458984375,1.162500023841858,-34.44375228881836,-24.600000381469727
1788093356998454800,1.007454833984375,1.0875000953674316,-36.91875076293945,-26.062501907348633
1788093357008454700,1.01745458984375,1.2750000953674316,-35.60625076293945,-26.475000381469727
1788093357018454800,1.027454833984375,1.125,-35.47500228881836,-27.375001907348633
1788093357028454700,1.03745458984375,1.2937500476837158,-35.60625076293945,-25.556251525878906
1788093357038454800,1.047454833984375,0.65625,-35.60625076293945,-25.556251525878906
1788093357048454700,1.05745458984375,-0.15000000596046448,-37.06875228881836,-26.512500762939453
1788093357058454800,1.067454833984375,0.956250011920929,-36.618751525878906,-25.89375114440918
1788093357068454700,1.07745458984375,1.0875000953674316,-37.5,-25.781251907348633
1788093357078454800,1.087454833984375,0.675000011920929,-35.025001525878906,-26.137500762939453
1788093357088454700,1.09745458984375,0.35625001788139343,-35.88750076293945,-25.256250381469727
1788093357098454800,1.107454833984375,2.15625,-38.23125076293945,-26.137500762939453
1788093357108454700,1.11745458984375,0.9375000596046448,-37.06875228881836,-26.231250762939453
1788093357118454800,1.127454833984375,0.8062500357627869,-36.1875,-26.043750762939453
1788093357128454700,1.13745458984375,-0.7875000238418579,-37.63125228881836,-25.162500381469727
1788093357138454800,1.147454833984375,1.8937500715255737,-35.88750076293945,-24.67500114440918
1788093357148454700,1.15745458984375,2.0250000953674316,-36.618751525878906,-25.61250114440918
1788093357158454800,1.167454833984375,2.8125,-36.48750305175781,-26.36250114440918
1788093357168454700,1.17745458984375,2.34375,-36.337501525878906,-26.962501525878906
1788093357178454800,1.187454833984375,2.325000047683716,-37.33125305175781,-24.58125114440918
1788093357188454700,1.19745458984375,2.512500047683716,-36.1875,-25.743751525878906
1788093357198454800,1.207454833984375,0.675000011920929,-34.743751525878906,-26.887500762939453
1788093357208454700,1.21745458984375,2.0250000953674316,-37.05000305175781,-25.181251525878906
1788093357218454800,1.227454833984375,1.5750000476837158,-36.60000228881836,-23.793750762939453
1788093357228454700,1.23745458984375,1.256250023841858,-37.05000305175781,-24.86250114440918
1788093357238454800,1.247454833984375,1.2937500476837158,-34.743751525878906,-26.437501907348633
1788093357248454700,1.25745458984375,1.2937500476837158,-34.743751525878906,-26.437501907348633
1788093357258454800,1.267454833984375,0.22500000894069672,-34.743751525878906,-26.118751525878906
1788093357268454700,1.27745458984375,2.1937501430511475,-36.46875,-24.693750381469727
1788093357278454800,1.287454833984375,2.6812500953674316,-36.03750228881836,-24.843751907348633
1788093357288454700,1.29745458984375,0.03750000149011612,-36.1875,-24.67500114440918
1788093357298454800,1.307454833984375,2.1750001907348633,-37.5,-25.80000114440918
1788093357308454700,1.31745458984375,1.443750023841858,-35.88750076293945,-24.375001907348633
1788093357318454800,1.327454833984375,1.5937501192092896,-35.60625076293945,-26.17500114440918
1788093357328454700,1.33745458984375,-0.4312500059604645,-36.337501525878906,-25.575000762939453
1788093357338454800,1.347454833984375,1.2937500476837158,-35.306251525878906,-25.106250762939453
1788093357348454700,1.35745458984375,2.2125000953674316,-36.16875076293945,-23.325000762939453
1788093357358454800,1.367454833984375,1.2937500476837158,-35.587501525878906,-24.056251525878906
1788093357368454700,1.37745458984375,1.8750001192092896,-37.20000076293945,-24.731250762939453
1788093357378454800,1.387454833984375,1.0875000953674316,-37.48125076293945,-25.031251907348633
1788093357388454700,1.39745458984375,-0.6000000238418579,-36.900001525878906,-23.625
1788093357398454800,1.407454833984375,1.0875000953674316,-37.20000076293945,-25.33125114440918
1788093357408454700,1.41745458984375,1.1062500476837158,-36.900001525878906,-24.712501525878906
1788093357418454800,1.427454833984375,-0.6187500357627869,-37.76250076293945,-23.662500381469727
1788093357428454700,1.43745458984375,1.4250000715255737,-36.48750305175781,-25.743751525878906
1788093357438454800,1.447454833984375,0.9000000357627869,-38.64375305175781,-24.618751525878906
1788093357448454700,1.45745458984375,0.15000000596046448,-37.650001525878906,-26.231250762939453
1788093357458454800,1.467454833984375,1.537500023841858,-38.0625,-24.918750762939453
1788093357468454700,1.47745458984375,0.6375000476837158,-37.05000305175781,-24.11250114440918
1788093357478454800,1.487454833984375,1.2000000476837158,-39.375,-24.95625114440918
1788093357488454700,1.49745458984375,0.65625,-36.03750228881836,-25.575000762939453
1788093357498454800,1.507454833984375,1.3875000476837158,-37.48125076293945,-25.031251907348633
1788093357508454700,1.51745458984375,1.40625,-36.900001525878906,-23.962501525878906
1788093357518454800,1.527454833984375,1.068750023841858,-38.493751525878906,-23.71875
1788093357528454700,1.53745458984375,-0.28125,-36.46875,-23.625
1788093357538454800,1.547454833984375,0.6187500357627869,-37.63125228881836,-24.881250381469727
1788093357548454700,1.55745458984375,0.6187500357627869,-37.05000305175781,-25.61250114440918
1788093357558454800,1.567454833984375,0.01875000074505806,-36.46875,-24.975000381469727
1788093357568454700,1.57745458984375,2.0812501907348633,-34.743751525878906,-26.137500762939453
1788093357578454800,1.587454833984375,0.1875,-36.31875228881836,-24.075000762939453
1788093357588454700,1.59745458984375,-0.13125000894069672,-36.618751525878906,-25.593751907348633
1788093357598454800,1.607454833984375,0.20625001192092896,-35.60625076293945,-24.48750114440918
1788093357608454700,1.61745458984375,1.40625,-37.181251525878906,-23.36250114440918
1788093357618454800,1.627454833984375,1.6125000715255737,-35.306251525878906,-24.48750114440918
1788093357628454700,1.63745458984375,2.3625001907348633,-36.31875228881836,-25.14375114440918
1788093357638454800,1.647454833984375,2.2125000953674316,-35.90625,-26.043750762939453
1788093357648454700,1.65745458984375,1.1062500476837158,-36.46875,-25.293750762939453
1788093357658454800,1.667454833984375,3.0187501907348633,-34.72500228881836,-24.787500381469727
1788093357668454700,1.67745458984375,2.043750047683716,-36.03750228881836,-25.89375114440918
1788093357678454800,1.687454833984375,0.15000000596046448,-37.35000228881836,-25.931251525878906
1788093357688454700,1.69745458984375,-0.6000000238418579,-36.46875,-24.975000381469727
1788093357698454800,1.707454833984375,0.956250011920929,-36.337501525878906,-25.89375114440918
1788093357708454700,1.71745458984375,3.3187501430511475,-35.17500305175781,-25.725000381469727
1788093357718454800,1.727454833984375,0.8062500357627869,-35.88750076293945,-24.95625114440918
1788093357728454700,1.73745458984375,1.3687500953674316,-38.79375076293945,-25.087501525878906
1788093357738454800,1.747454833984375,1.5937501192092896,-36.03750228881836,-24.525001525878906
1788093357748454700,1.75745458984375,1.5750000476837158,-37.05000305175781,-23.8125
1788093357758454800,1.767454833984375,0.675000011920929,-35.306251525878906,-25.087501525878906
1788093357768454700,1.77745458984375,1.8375000953674316,-38.51250076293945,-25.837501525878906
1788093357778454800,1.787454833984375,1.5562500953674316,-37.05000305175781,-25.162500381469727
1788093357788454700,1.79745458984375,0.16875000298023224,-36.618751525878906,-25.593751907348633
1788093357798454800,1.807454833984375,1.125,-36.1875,-25.275001525878906
1788093357808454700,1.81745458984375,0.3375000059604645,-36.20625305175781,-26.793750762939453
1788093357818454800,1.827454833984375,-0.581250011920929,-35.90625,-26.006250381469727
1788093357828454700,1.83745458984375,1.5750000476837158,-36.618751525878906,-26.212501525878906
1788093357838454800,1.847454833984375,1.5750000476837158,-36.31875228881836,-24.075000762939453
1788093357848454700,1.85745458984375,0.7875000238418579,-36.900001525878906,-24.712501525878906
1788093357858454800,1.867454833984375,0.6187500357627869,-37.35000228881836,-25.181251525878906
1788093357868454700,1.87745458984375,1.8937500715255737,-36.1875,-25.293750762939453
1788093357878454800,1.887454833984375,1.8750001192092896,-36.46875,-25.762500762939453
1788093357888454700,1.89745458984375,0.03750000149011612,-35.88750076293945,-25.256250381469727
1788093357898454800,1.907454833984375,1.162500023841858,-34.44375228881836,-25.668750762939453
1788093357908454700,1.91745458984375,1.912500023841858,-35.17500305175781,-25.70625114440918
1788093357918454800,1.927454833984375,2.325000047683716,-37.06875228881836,-26.531251907348633
1788093357928454700,1.93745458984375,1.5562500953674316,-37.35000228881836,-24.881250381469727
1788093357938454800,1.947454833984375,1.8562500476837158,-37.21875,-27.150001525878906
1788093357948454700,1.95745458984375,1.256250023841858,-37.05000305175781,-24.562501907348633
1788093357958454800,1.967454833984375,0.20625001192092896,-35.60625076293945,-25.556251525878906
1788093357968454700,1.97745458984375,0.20625001192092896,-35.32500076293945,-25.537500381469727
1788093357978454800,1.987454833984375,2.4750001430511475,-37.48125076293945,-24.750001907348633
1788093357988454700,1.99745458984375,0.6375000476837158,-36.618751525878906,-24.543750762939453
1788093357998454800,2.007454833984375,-0.75,-36.63750076293945,-25.89375114440918
1788093358008454700,2.01745458984375,0.16875000298023224,-37.06875228881836,-25.61250114440918
1788093358018454800,2.027454833984375,3.2437500953674316,-38.212501525878906,-25.087501525878906
1788093358028454700,2.03745458984375,0.768750011920929,-37.21875,-26.381250381469727
1788093358038454800,2.047454833984375,1.8562500476837158,-37.20000076293945,-25.781251907348633
1788093358048454700,2.05745458984375,0.768750011920929,-37.21875,-26.381250381469727
1788093358058454800,2.067454833984375,0.7875000238418579,-37.20000076293945,-25.012500762939453
1788093358068454700,2.07745458984375,0.8250000476837158,-35.45625305175781,-24.637500762939453
1788093358078454800,2.087454833984375,1.256250023841858,-37.33125305175781,-24.11250114440918
1788093358088454700,2.09745458984375,2.981250047683716,-36.03750228881836,-24.543750762939453
1788093358098454800,2.107454833984375,1.40625,-37.20000076293945,-24.412500381469727
1788093358108454700,2.11745458984375,0.01875000074505806,-36.48750305175781,-25.743751525878906
1788093358118454800,2.127454833984375,0.3187500238418579,-36.900001525878906,-24.693750381469727
1788093358128454700,2.13745458984375,0.8250000476837158,-35.15625,-24.937501907348633
1788093358138454800,2.147454833984375,1.1062500476837158,-36.900001525878906,-23.64375114440918
1788093358148454700,2.15745458984375,2.625,-38.0625,-23.568750381469727
1788093358158454800,2.167454833984375,-0.6000000238418579,-36.46875,-24.375001907348633
1788093358168454700,2.17745458984375,-1.0500000715255737,-36.16875076293945,-23.606250762939453
1788093358178454800,2.187454833984375,0.675000011920929,-35.587501525878906,-23.73750114440918
1788093358188454700,2.19745458984375,-0.6187500357627869,-37.48125076293945,-23.34375
1788093358198454800,2.207454833984375,1.2375000715255737,-37.06875228881836,-26.531251907348633
1788093358208454700,2.21745458984375,0.6187500357627869,-37.63125228881836,-24.58125114440918
1788093358218454800,2.227454833984375,0.6187500357627869,-37.63125228881836,-24.58125114440918
1788093358228454700,2.23745458984375,0.768750011920929,-37.48125076293945,-24.431251525878906
1788093358238454800,2.247454833984375,1.5187500715255737,-38.64375305175781,-24.168750762939453
1788093358248454700,2.25745458984375,0.6187500357627869,-37.63125228881836,-25.631250381469727
1788093358258454800,2.267454833984375,1.537500023841858,-38.0625,-24.150001525878906
1788093358268454700,2.27745458984375,0,-37.48125076293945,-24.412500381469727
1788093358278454800,2.287454833984375,-0.15000000596046448,-37.33125305175781,-23.193750381469727
1788093358288454700,2.29745458984375,0.3375000059604645,-36.900001525878906,-23.043750762939453
1788093358298454800,2.307454833984375,2.043750047683716,-36.60000228881836,-24.093751907348633
1788093358308454700,2.31745458984375,0,-37.48125076293945,-23.962501525878906
1788093358318454800,2.327454833984375,0,-37.48125076293945,-23.962501525878906
1788093358328454700,2.33745458984375,0.03750000149011612,-36.46875,-23.625
1788093358338454800,2.347454833984375,0.6375000476837158,-37.33125305175781,-23.212501525878906
1788093358348454700,2.35745458984375,0.675000011920929,-35.587501525878906,-24.037500381469727
1788093358358454800,2.367454833984375,0.30000001192092896,-37.78125,-24.731250762939453
1788093358368454700,2.37745458984375,1.4250000715255737,-36.46875,-23.943750381469727
1788093358378454800,2.387454833984375,1.8937500715255737,-36.46875,-24.993751525878906
1788093358388454700,2.39745458984375,-2.0062501430511475,-37.48125076293945,-23.043750762939453
1788093358398454800,2.407454833984375,2.0250000953674316,-37.05000305175781,-24.11250114440918
1788093358408454700,2.41745458984375,1.3687500953674316,-38.212501525878906,-24.76875114440918
1788093358418454800,2.427454833984375,-0.15000000596046448,-37.06875228881836,-25.912500381469727
1788093358428454700,2.43745458984375,0.7312500476837158,-38.79375076293945,-25.387500762939453
1788093358438454800,2.447454833984375,0.9000000357627869,-38.64375305175781,-24.168750762939453
1788093358448454700,2.45745458984375,0.6187500357627869,-37.33125305175781,-24.11250114440918
1788093358458454800,2.467454833984375,1.8750001192092896,-37.20000076293945,-25.33125114440918
1788093358468454700,2.47745458984375,0.6375000476837158,-37.33125305175781,-23.8125
1788093358478454800,2.487454833984375,0.9187500476837158,-38.34375,-23.850000381469727
1788093358488454700,2.49745458984375,1.2750000953674316,-36.31875228881836,-24.525001525878906
1788093358498454800,2.507454833984375,1.3875000476837158,-37.48125076293945,-24.731250762939453
1788093358508454700,2.51745458984375,2.4750001430511475,-37.78125,-25.05000114440918
1788093358518454800,2.527454833984375,0.1875,-36.60000228881836,-23.775001525878906
1788093358528454700,2.53745458984375,1.5750000476837158,-36.618751525878906,-25.61250114440918
1788093358538454800,2.547454833984375,-1.5187500715255737,-36.31875228881836,-24.506250381469727
1788093358548454700,2.55745458984375,1.40625,-37.181251525878906,-23.962501525878906
1788093358558454800,2.567454833984375,1.5562500953674316,-37.35000228881836,-26.55000114440918
1788093358568454700,2.57745458984375,0.6187500357627869,-37.05000305175781,-25.61250114440918
1788093358578454800,2.587454833984375,2.1937501430511475,-36.1875,-26.043750762939453
1788093358588454700,2.59745458984375,-0.13125000894069672,-36.31875228881836,-24.075000762939453
1788093358598454800,2.607454833984375,1.5562500953674316,-37.35000228881836,-25.181251525878906
1788093358608454700,2.61745458984375,0.3187500238418579,-36.900001525878906,-24.39375114440918
1788093358618454800,2.627454833984375,1.125,-36.16875076293945,-23.325000762939453
1788093358628454700,2.63745458984375,-0.15000000596046448,-37.33125305175781,-22.443750381469727
1788093358638454800,2.647454833984375,1.2750000953674316,-36.31875228881836,-24.525001525878906
1788093358648454700,2.65745458984375,0.3375000059604645,-36.900001525878906,-23.943750381469727
1788093358658454800,2.667454833984375,0.9750000238418579,-36.03750228881836,-24.525001525878906
1788093358668454700,2.67745458984375,0.9375000596046448,-37.05000305175781,-25.162500381469727
1788093358678454800,2.687454833984375,0.01875000074505806,-36.900001525878906,-23.64375114440918
1788093358688454700,2.69745458984375,0.6187500357627869,-37.35000228881836,-25.181251525878906
1788093358698454800,2.707454833984375,0.01875000074505806,-36.900001525878906,-23.943750381469727
1788093358708454700,2.71745458984375,-0.6000000238418579,-36.900001525878906,-24.693750381469727
1788093358718454800,2.727454833984375,-0.4312500059604645,-36.337501525878906,-25.575000762939453
1788093358728454700,2.73745458984375,-0.45000001788139343,-36.65625,-28.312501907348633
1788093358738454800,2.747454833984375,0.3375000059604645,-36.1875,-25.275001525878906
1788093358748454700,2.75745458984375,-2.2687501907348633,-35.04375076293945,-26.100000381469727
1788093358758454800,2.767454833984375,-0.48750001192092896,-38.08125305175781,-25.200000762939453
1788093358768454700,2.77745458984375,1.40625,-36.900001525878906,-25.012500762939453
1788093358778454800,2.787454833984375,1.3875000476837158,-37.5,-25.33125114440918
1788093358788454700,2.79745458984375,0.65625,-36.03750228881836,-24.825000762939453
1788093358798454800,2.807454833984375,0.3375000059604645,-36.1875,-25.725000381469727
1788093358808454700,2.81745458984375,0.15000000596046448,-37.35000228881836,-25.931251525878906
1788093358818454800,2.827454833984375,-0.15000000596046448,-37.63125228881836,-24.881250381469727
1788093358828454700,2.83745458984375,2.0625,-35.32500076293945,-26.475000381469727
1788093358838454800,2.847454833984375,0,-37.78125,-25.33125114440918
1788093358848454700,2.85745458984375,-0.11250000447034836,-36.03750228881836,-25.575000762939453
1788093358858454800,2.867454833984375,0.16875000298023224,-37.33125305175781,-23.512500762939453
1788093358868454700,2.87745458984375,0.3187500238418579,-37.20000076293945,-25.762500762939453
1788093358878454800,2.887454833984375,-0.30000001192092896,-37.48125076293945,-24.412500381469727
1788093358888454700,2.89745458984375,0.1875,-36.056251525878906,-26.17500114440918
1788093358898454800,2.907454833984375,0.7875000238418579,-36.91875076293945,-25.762500762939453
1788093358908454700,2.91745458984375,-0.30000001192092896,-36.91875076293945,-26.812501907348633
1788093358918454800,2.927454833984375,-1.7062500715255737,-36.9375,-28.462501525878906
1788093358928454700,2.93745458984375,-0.01875000074505806,-37.80000305175781,-26.400001525878906
1788093358938454800,2.947454833984375,1.256250023841858,-37.05000305175781,-25.162500381469727
1788093358948454700,2.95745458984375,-0.16875000298023224,-38.36250305175781,-24.600000381469727
1788093358958454800,2.967454833984375,-0.3187500238418579,-37.80000305175781,-26.08125114440918
1788093358968454700,2.97745458984375,1.2750000953674316,-36.31875228881836,-24.843751907348633
1788093358978454800,2.987454833984375,1.5750000476837158,-36.03750228881836,-25.575000762939453
1788093358988454700,2.99745458984375,0.01875000074505806,-36.900001525878906,-23.025001525878906
1788093358998454800,3.007454833984375,0.6375000476837158,-36.337501525878906,-25.89375114440918
1788093359008454700,3.01745458984375,-1.1062500476837158,-38.493751525878906,-23.700000762939453
1788093359018454800,3.027454833984375,-1.818750023841858,-35.625,-26.887500762939453
1788093359028454700,3.03745458984375,1.0875000953674316,-36.91875076293945,-25.762500762939453
1788093359038454800,3.047454833984375,0.03750000149011612,-35.90625,-26.006250381469727
1788093359048454700,3.05745458984375,-1.068750023841858,-36.48750305175781,-26.775001525878906
1788093359058454800,3.067454833984375,-0.13125000894069672,-36.056251525878906,-27.225000381469727
1788093359068454700,3.07745458984375,-0.6000000238418579,-36.20625305175781,-26.775001525878906
1788093359078454800,3.087454833984375,-0.13125000894069672,-36.337501525878906,-25.875001907348633
1788093359088454700,3.09745458984375,-1.537500023841858,-37.06875228881836,-26.193750381469727
1788093359098454800,3.107454833984375,1.256250023841858,-36.618751525878906,-24.843751907348633
1788093359108454700,3.11745458984375,-0.45000001788139343,-36.618751525878906,-24.525001525878906
1788093359118454800,3.127454833984375,-0.11250000447034836,-35.60625076293945,-25.556251525878906
1788093359128454700,3.13745458984375,0.3375000059604645,-36.1875,-26.025001525878906
1788093359138454800,3.147454833984375,2.043750047683716,-36.60000228881836,-23.493751525878906
1788093359148454700,3.15745458984375,-0.35625001788139343,-39.243751525878906,-25.837501525878906
1788093359158454800,3.167454833984375,0.3375000059604645,-36.900001525878906,-23.043750762939453
1788093359168454700,3.17745458984375,-1.5187500715255737,-36.337501525878906,-24.806251525878906
1788093359178454800,3.187454833984375,1.4625000953674316,-35.4375,-23.287500381469727
1788093359188454700,3.19745458984375,0.30000001192092896,-37.78125,-24.431251525878906
1788093359198454800,3.207454833984375,0.3187500238418579,-37.48125076293945,-23.662500381469727
1788093359208454700,3.21745458984375,-0.768750011920929,-37.06875228881836,-26.962501525878906
1788093359218454800,3.227454833984375,-0.6187500357627869,-37.20000076293945,-25.312501907348633
1788093359228454700,3.23745458984375,-0.28125,-36.46875,-24.375001907348633
1788093359238454800,3.247454833984375,-0.6000000238418579,-36.46875,-25.275001525878906
1788093359248454700,3.25745458984375,1.125,-36.16875076293945,-23.325000762939453
1788093359258454800,3.267454833984375,-0.4312500059604645,-36.056251525878906,-26.17500114440918
1788093359268454700,3.27745458984375,2.0250000953674316,-37.05000305175781,-25.181251525878906
1788093359278454800,3.287454833984375,1.443750023841858,-35.45625305175781,-25.256250381469727
1788093359288454700,3.29745458984375,0.9375000596046448,-37.05000305175781,-25.162500381469727
1788093359298454800,3.307454833984375,-0.4125000238418579,-35.60625076293945,-25.537500381469727
1788093359308454700,3.31745458984375,0.8062500357627869,-36.20625305175781,-26.793750762939453
1788093359318454800,3.327454833984375,0.375,-34.89375305175781,-27.037500381469727
1788093359328454700,3.33745458984375,-1.21875,-36.618751525878906,-25.575000762939453
1788093359338454800,3.347454833984375,-0.4687500298023224,-37.650001525878906,-26.981250762939453
1788093359348454700,3.35745458984375,0.6187500357627869,-37.35000228881836,-24.86250114440918
1788093359358454800,3.367454833984375,0.9750000238418579,-35.32500076293945,-25.856250762939453
1788093359368454700,3.37745458984375,0.1875,-36.31875228881836,-24.825000762939453
1788093359378454800,3.387454833984375,0.6187500357627869,-37.35000228881836,-25.631250381469727
1788093359388454700,3.39745458984375,0.6187500357627869,-37.35000228881836,-25.631250381469727
1788093359398454800,3.407454833984375,0.9375000596046448,-37.35000228881836,-24.881250381469727
1788093359408454700,3.41745458984375,0.7875000238418579,-36.48750305175781,-26.043750762939453
1788093359418454800,3.427454833984375,-1.0125000476837158,-34.875,-24.600000381469727
1788093359428454700,3.43745458984375,1.1062500476837158,-36.91875076293945,-25.312501907348633
1788093359438454800,3.447454833984375,2.0062501430511475,-37.35000228881836,-25.950000762939453
1788093359448454700,3.45745458984375,-0.7125000357627869,-35.306251525878906,-23.71875
1788093359458454800,3.467454833984375,-0.09375,-35.306251525878906,-24.787500381469727
1788093359468454700,3.47745458984375,-1.350000023841858,-35.45625305175781,-25.218751907348633
1788093359478454800,3.487454833984375,0.3375000059604645,-36.46875,-24.375001907348633
1788093359488454700,3.49745458984375,0.6375000476837158,-37.05000305175781,-25.162500381469727
1788093359498454800,3.507454833984375,0.15000000596046448,-37.650001525878906,-27.30000114440918
1788093359508454700,3.51745458984375,1.256250023841858,-36.618751525878906,-25.14375114440918
1788093359518454800,3.527454833984375,0.9937500357627869,-35.025001525878906,-25.087501525878906
1788093359528454700,3.53745458984375,1.5750000476837158,-36.31875228881836,-25.14375114440918
1788093359538454800,3.547454833984375,-0.6187500357627869,-37.5,-26.381250381469727
1788093359548454700,3.55745458984375,0.20625001192092896,-35.60625076293945,-26.156251907348633
1788093359558454800,3.567454833984375,1.8750001192092896,-37.20000076293945,-24.731250762939453
1788093359568454700,3.57745458984375,0.8062500357627869,-36.16875076293945,-24.375001907348633
1788093359578454800,3.587454833984375,-0.6187500357627869,-37.20000076293945,-24.693750381469727
1788093359588454700,3.59745458984375,-0.8062500357627869,-38.38125228881836,-26.568750381469727
1788093359598454800,3.607454833984375,-0.7312500476837158,-36.03750228881836,-24.506250381469727
1788093359608454700,3.61745458984375,-0.6375000476837158,-38.212501525878906,-24.750001907348633
1788093359618454800,3.627454833984375,-0.6187500357627869,-36.91875076293945,-26.343751907348633
1788093359628454700,3.63745458984375,1.443750023841858,-35.88750076293945,-24.375001907348633
1788093359638454800,3.647454833984375,1.256250023841858,-36.337501525878906,-25.89375114440918
1788093359648454700,3.65745458984375,1.443750023841858,-35.45625305175781,-24.356250762939453
1788093359658454800,3.667454833984375,2.6437501907348633,-37.05000305175781,-25.931251525878906
1788093359668454700,3.67745458984375,2.2125000953674316,-35.88750076293945,-24.975000381469727
1788093359678454800,3.687454833984375,0.16875000298023224,-37.05000305175781,-23.793750762939453
1788093359688454700,3.69745458984375,3.450000047683716,-35.625,-27.993751525878906
1788093359698454800,3.707454833984375,1.4250000715255737,-36.48750305175781,-26.043750762939453
1788093359708454700,3.71745458984375,-0.24375000596046448,-34.89375305175781,-26.26875114440918
1788093359718454800,3.727454833984375,-0.6000000238418579,-36.46875,-25.275001525878906
1788093359728454700,3.73745458984375,-0.6000000238418579,-36.48750305175781,-26.793750762939453
1788093359738454800,3.747454833984375,-0.4125000238418579,-35.32500076293945,-26.437501907348633
1788093359748454700,3.75745458984375,-0.30000001192092896,-36.48750305175781,-26.343751907348633
1788093359758454800,3.767454833984375,-0.26250001788139343,-35.47500228881836,-26.756250381469727
1788093359768454700,3.77745458984375,-2.2875001430511475,-35.625,-26.437501907348633
1788093359778454800,3.787454833984375,-1.0875000953674316,-37.21875,-26.062501907348633
1788093359788454700,3.79745458984375,0.01875000074505806,-36.20625305175781,-27.093751907348633
1788093359798454800,3.807454833984375,-1.3687500953674316,-36.46875,-24.975000381469727
1788093359808454700,3.81745458984375,0.6375000476837158,-36.337501525878906,-25.593751907348633
1788093359818454800,3.827454833984375,-0.6000000238418579,-36.48750305175781,-26.343751907348633
1788093359828454700,3.83745458984375,0.16875000298023224,-37.06875228881836,-25.61250114440918
1788093359838454800,3.847454833984375,0.01875000074505806,-36.46875,-25.275001525878906
1788093359848454700,3.85745458984375,-0.581250011920929,-35.90625,-26.756250381469727
1788093359858454800,3.867454833984375,-0.13125000894069672,-36.63750076293945,-26.493751525878906
1788093359868454700,3.87745458984375,-0.768750011920929,-37.06875228881836,-25.89375114440918
1788093359878454800,3.887454833984375,0.16875000298023224,-36.618751525878906,-25.593751907348633
1788093359888454700,3.89745458984375,-2.418750047683716,-35.45625305175781,-24.318750381469727
1788093359898454800,3.907454833984375,-1.4812500476837158,-35.025001525878906,-24.750001907348633
1788093359908454700,3.91745458984375,-0.3187500238418579,-37.5,-26.83125114440918
1788093359918454800,3.927454833984375,-1.03125,-35.45625305175781,-24.618751525878906
1788093359928454700,3.93745458984375,0.8250000476837158,-35.88750076293945,-24.356250762939453
1788093359938454800,3.947454833984375,-0.07500000298023224,-34.29375076293945,-24.750001907348633
1788093359948454700,3.95745458984375,-1.5562500953674316,-37.63125228881836,-24.562501907348633
1788093359958454800,3.967454833984375,-0.4312500059604645,-35.60625076293945,-26.156251907348633
1788093359968454700,3.97745458984375,-2.0062501430511475,-37.21875,-26.043750762939453
1788093359978454800,3.987454833984375,0.05625000223517418,-35.15625,-24.618751525878906
1788093359988454700,3.99745458984375,-0.28125,-35.90625,-27.075000762939453
1788093359998454800,4.007454833984375,-0.75,-36.63750076293945,-25.89375114440918
1788093360008454700,4.01745458984375,-1.8937500715255737,-38.38125228881836,-26.250001907348633
1788093360018454800,4.027454833984375,-0.4687500298023224,-37.06875228881836,-26.962501525878906
1788093360028454700,4.03745458984375,-3.2437500953674316,-36.65625,-27.525001525878906
1788093360038454800,4.047454833984375,-1.6875001192092896,-36.48750305175781,-26.025001525878906
1788093360048454700,4.05745458984375,-2.2875001430511475,-36.337501525878906,-24.806251525878906
1788093360058454800,4.067454833984375,-1.40625,-37.80000305175781,-26.381250381469727
1788093360068454700,4.07745458984375,-1.8375000953674316,-36.35625076293945,-27.225000381469727
1788093360078454800,4.087454833984375,-1.068750023841858,-36.91875076293945,-24.993751525878906
1788093360088454700,4.09745458984375,0.9187500476837158,-37.63125228881836,-25.181251525878906
1788093360098454800,4.107454833984375,-1.6687500476837158,-35.90625,-25.23750114440918
1788093360108454700,4.11745458984375,0.956250011920929,-36.618751525878906,-24.843751907348633
1788093360118454800,4.127454833984375,0.13125000894069672,-38.08125305175781,-25.650001525878906
1788093360128455000,4.137454833984375,1.1062500476837158,-36.1875,-25.743751525878906
1788093360138454800,4.147454833984375,0.6187500357627869,-37.06875228881836,-27.281251907348633
1788093360148455000,4.157454833984375,-1.5562500953674316,-38.0625,-22.762500762939453
1788093360158454800,4.167454833984375,0.13125000894069672,-38.36250305175781,-25.668750762939453
1788093360168455000,4.177454833984375,1.256250023841858,-37.05000305175781,-24.562501907348633
1788093360178454800,4.187454833984375,0.9187500476837158,-37.63125228881836,-24.881250381469727
1788093360188455000,4.197454833984375,1.8750001192092896,-36.48750305175781,-26.36250114440918
1788093360198454800,4.207454833984375,1.5562500953674316,-37.33125305175781,-24.58125114440918
1788093360208455000,4.217454833984375,1.256250023841858,-37.05000305175781,-25.61250114440918
1788093360218454800,4.227454833984375,1.256250023841858,-36.618751525878906,-25.61250114440918
1788093360228455000,4.237454833984375,-1.40625,-37.78125,-25.312501907348633
1788093360238454800,4.247454833984375,-0.4687500298023224,-37.06875228881836,-26.962501525878906
1788093360248455000,4.257454833984375,-1.3687500953674316,-36.20625305175781,-27.075000762939453
1788093360258454800,4.267454833984375,0.20625001192092896,-35.60625076293945,-24.787500381469727
1788093360268455000,4.277454833984375,0.03750000149011612,-36.1875,-24.67500114440918
1788093360278454800,4.287454833984375,0.15000000596046448,-38.0625,-24.131250381469727
1788093360288455000,4.297454833984375,-0.768750011920929,-37.06875228881836,-26.212501525878906
1788093360298454800,4.307454833984375,-0.5625,-35.45625305175781,-24.937501907348633
1788093360308455000,4.317454833984375,-0.11250000447034836,-36.03750228881836,-24.806251525878906
1788093360318454800,4.327454833984375,0.1875,-36.31875228881836,-23.775001525878906
1788093360328455000,4.337454833984375,-0.6187500357627869,-36.91875076293945,-26.043750762939453
1788093360378454800,4.387454833984375,0.01875000074505806,-36.1875,-26.025001525878906
1788093360388455000,4.397454833984375,-1.818750023841858,-35.60625076293945,-24.76875114440918
1788093360398454800,4.407454833984375,0.16875000298023224,-36.337501525878906,-26.493751525878906
1788093360408455000,4.417454833984375,-0.45000001788139343,-36.63750076293945,-26.193750381469727
1788093360418454800,4.427454833984375,-1.1812500953674316,-35.025001525878906,-24.450000762939453
1788093360428455000,4.437454833984375,-1.8000000715255737,-35.32500076293945,-25.51875114440918
1788093360438454800,4.447454833984375,-1.0500000715255737,-35.88750076293945,-24.337501525878906
1788093360448455000,4.457454833984375,0.01875000074505806,-36.91875076293945,-26.062501907348633
1788093360458454800,4.467454833984375,0.01875000074505806,-36.91875076293945,-26.062501907348633
1788093360468455000,4.477454833984375,-1.21875,-36.337501525878906,-25.106250762939453
1788093360478454800,4.487454833984375,-0.75,-36.056251525878906,-25.856250762939453
1788093360488455000,4.497454833984375,-1.5187500715255737,-36.337501525878906,-25.556251525878906
1788093360498454800,4.507454833984375,0.16875000298023224,-36.337501525878906,-26.493751525878906
1788093360508455000,4.517454833984375,-0.4125000238418579,-35.306251525878906,-24.787500381469727
1788093360518454800,4.527454833984375,-0.6000000238418579,-36.1875,-26.325000762939453
1788093360528455000,4.537454833984375,-1.9687501192092896,-35.90625,-25.23750114440918
1788093360538454800,4.547454833984375,0.375,-35.4375,-23.287500381469727
1788093360548455000,4.557454833984375,-1.3687500953674316,-36.46875,-24.356250762939453
1788093360558454800,4.567454833984375,-1.6687500476837158,-36.1875,-26.006250381469727
1788093360568455000,4.577454833984375,-0.30000001192092896,-36.50625228881836,-27.693750381469727
1788093360578454800,4.587454833984375,1.2750000953674316,-36.03750228881836,-26.193750381469727
1788093360588455000,4.597454833984375,-1.256250023841858,-37.368751525878906,-27.262500762939453
1788093360598454800,4.607454833984375,-1.2375000715255737,-37.06875228881836,-26.193750381469727
1788093360608455000,4.617454833984375,-0.4312500059604645,-35.60625076293945,-25.856250762939453
1788093360618454800,4.627454833984375,-1.3687500953674316,-36.48750305175781,-25.725000381469727
1788093360628455000,4.637454833984375,0.6187500357627869,-37.35000228881836,-25.931251525878906
1788093360638454800,4.647454833984375,-1.9687501192092896,-35.45625305175781,-25.218751907348633
1788093360648455000,4.657454833984375,-1.2000000476837158,-35.625,-27.95625114440918
1788093360658454800,4.667454833984375,0.1875,-36.03750228881836,-24.506250381469727
1788093360668455000,4.677454833984375,-1.1062500476837158,-38.51250076293945,-25.350000381469727
1788093360678454800,4.687454833984375,-0.11250000447034836,-35.60625076293945,-25.087501525878906
1788093360688455000,4.697454833984375,-0.768750011920929,-37.35000228881836,-25.61250114440918
1788093360698454800,4.707454833984375,-0.26250001788139343,-35.88750076293945,-24.95625114440918
1788093360708455000,4.717454833984375,-0.6187500357627869,-37.48125076293945,-24.712501525878906
1788093360718454800,4.727454833984375,1.2937500476837158,-35.04375076293945,-27.20625114440918
1788093360728455000,4.737454833984375,0.03750000149011612,-35.88750076293945,-24.95625114440918
1788093360738454800,4.747454833984375,0.35625001788139343,-35.88750076293945,-24.95625114440918
1788093360748455000,4.757454833984375,-1.162500023841858,-34.3125,-27.450000762939453
1788093360758454800,4.767454833984375,0.3187500238418579,-36.91875076293945,-25.312501907348633
1788093360768455000,4.777454833984375,-1.068750023841858,-36.20625305175781,-26.775001525878906
1788093360778454800,4.787454833984375,-1.9875000715255737,-35.92500305175781,-27.356250762939453
1788093360788455000,4.797454833984375,0.03750000149011612,-35.47500228881836,-26.006250381469727
1788093360798454800,4.807454833984375,-1.068750023841858,-36.91875076293945,-26.343751907348633
1788093360808455000,4.817454833984375,-1.40625,-37.78125,-25.312501907348633
1788093360818454800,4.827454833984375,-0.4312500059604645,-36.056251525878906,-26.17500114440918
1788093360828455000,4.837454833984375,-1.3687500953674316,-36.1875,-26.006250381469727
1788093360838454800,4.847454833984375,1.256250023841858,-36.056251525878906,-27.543750762939453
1788093360848455000,4.857454833984375,-3.750000238418579,-38.10000228881836,-26.512500762939453
1788093360858454800,4.867454833984375,0.6375000476837158,-36.337501525878906,-26.493751525878906
1788093360868455000,4.877454833984375,-0.75,-36.618751525878906,-24.825000762939453
1788093360878454800,4.887454833984375,-1.21875,-36.337501525878906,-25.106250762939453
1788093360888455000,4.897454833984375,-1.8562500476837158,-37.06875228881836,-26.193750381469727
1788093360898454800,4.907454833984375,-1.068750023841858,-36.91875076293945,-26.043750762939453
1788093360908455000,4.917454833984375,-1.0500000715255737,-36.20625305175781,-26.325000762939453
1788093360918454800,4.927454833984375,-1.6687500476837158,-35.90625,-26.006250381469727
1788093360928455000,4.937454833984375,-0.28125,-36.48750305175781,-25.725000381469727
1788093360938454800,4.947454833984375,0.35625001788139343,-35.4375,-23.887500762939453
1788093360948455000,4.957454833984375,-1.2375000715255737,-37.06875228881836,-26.493751525878906
1788093360958454800,4.967454833984375,0.65625,-35.60625076293945,-26.156251907348633
1788093360968455000,4.977454833984375,-1.3875000476837158,-37.48125076293945,-23.943750381469727
1788093360978454800,4.987454833984375,-1.068750023841858,-36.91875076293945,-24.993751525878906
1788093360988455000,4.997454833984375,0.1875,-36.03750228881836,-24.506250381469727
1788093360998454800,5.007454833984375,1.8375000953674316,-38.212501525878906,-25.368751525878906
1788093361008455000,5.017454833984375,-1.5,-35.60625076293945,-25.837501525878906
1788093361018454800,5.027454833984375,-2.3062500953674316,-36.35625076293945,-26.92500114440918
1788093361028455000,5.037454833984375,-1.068750023841858,-36.48750305175781,-27.093751907348633
1788093361038454800,5.047454833984375,-0.75,-36.056251525878906,-26.92500114440918
1788093361048455000,5.057454833984375,-2.606250047683716,-36.056251525878906,-25.837501525878906
1788093361058454800,5.067454833984375,-1.8375000953674316,-36.337501525878906,-25.556251525878906
1788093361068455000,5.077454833984375,-3.281250238418579,-38.36250305175781,-24.881250381469727
1788093361078454800,5.087454833984375,-2.3062500953674316,-36.63750076293945,-26.17500114440918
1788093361088455000,5.097454833984375,-2.7750000953674316,-36.91875076293945,-26.025001525878906
1788093361098454800,5.107454833984375,-0.11250000447034836,-36.03750228881836,-25.106250762939453
1788093361108455000,5.117454833984375,-0.15000000596046448,-37.087501525878906,-28.031251907348633
1788093361118454800,5.127454833984375,-1.7062500715255737,-36.9375,-26.793750762939453
1788093361128455000,5.137454833984375,0.3187500238418579,-37.20000076293945,-25.312501907348633
1788093361138454800,5.147454833984375,-2.0062501430511475,-36.9375,-26.793750762939453
1788093361148455000,5.157454833984375,-2.793750047683716,-37.21875,-27.39375114440918
1788093361158454800,5.167454833984375,-1.7062500715255737,-37.78125,-25.012500762939453
1788093361168455000,5.177454833984375,-1.7062500715255737,-37.5,-25.012500762939453
1788093361178454800,5.187454833984375,-2.5500001907348633,-34.01250076293945,-25.762500762939453
1788093361188455000,5.197454833984375,-0.28125,-36.16875076293945,-23.90625
1788093361198454800,5.207454833984375,-0.4312500059604645,-36.03750228881836,-25.556251525878906
1788093361208455000,5.217454833984375,-0.1875,-38.08125305175781,-27.000001907348633
1788093361218454800,5.227454833984375,-0.6000000238418579,-36.48750305175781,-26.025001525878906
1788093361228455000,5.237454833984375,0.30000001192092896,-37.5,-26.381250381469727
1788093361238454800,5.247454833984375,0.65625,-36.60000228881836,-22.725000381469727
1788093361248455000,5.257454833984375,-0.75,-36.35625076293945,-27.543750762939453
1788093361258454800,5.267454833984375,-1.9875000715255737,-35.90625,-27.056251525878906
1788093361268455000,5.277454833984375,-1.350000023841858,-35.88750076293945,-24.637500762939453
1788093361278454800,5.287454833984375,-2.4562501907348633,-36.1875,-26.006250381469727
1788093361288455000,5.297454833984375,-0.15000000596046448,-37.06875228881836,-25.912500381469727
1788093361298454800,5.307454833984375,0.9750000238418579,-36.03750228881836,-25.125001907348633
1788093361308455000,5.317454833984375,-0.4312500059604645,-36.03750228881836,-24.806251525878906
1788093361318454800,5.327454833984375,0.8062500357627869,-36.46875,-25.293750762939453
1788093361328455000,5.337454833984375,-2.3062500953674316,-36.618751525878906,-24.056251525878906
1788093361338454800,5.347454833984375,-0.65625,-38.79375076293945,-25.068750381469727
1788093361348455000,5.357454833984375,-0.6000000238418579,-36.46875,-24.375001907348633
1788093361358454800,5.367454833984375,-0.26250001788139343,-36.16875076293945,-22.556251525878906
1788093361368455000,5.377454833984375,0.01875000074505806,-36.48750305175781,-26.043750762939453
1788093361378454800,5.387454833984375,-0.28125,-35.90625,-25.70625114440918
1788093361388455000,5.397454833984375,0.16875000298023224,-37.35000228881836,-24.562501907348633
1788093361398454800,5.407454833984375,-0.15000000596046448,-37.06875228881836,-25.61250114440918
1788093361408455000,5.417454833984375,-1.2375000715255737,-37.35000228881836,-25.162500381469727
1788093361418454800,5.427454833984375,0.35625001788139343,-35.4375,-23.887500762939453
1788093361428455000,5.437454833984375,-1.068750023841858,-37.20000076293945,-24.693750381469727
1788093361438454800,5.447454833984375,0.9187500476837158,-37.63125228881836,-25.650001525878906
1788093361448455000,5.457454833984375,-0.09375,-35.306251525878906,-25.087501525878906
1788093361458454800,5.467454833984375,0.6375000476837158,-36.618751525878906,-24.543750762939453
1788093361468455000,5.477454833984375,-0.11250000447034836,-35.60625076293945,-26.156251907348633
1788093361478454800,5.487454833984375,-1.8375000953674316,-36.618751525878906,-25.125001907348633
1788093361488455000,5.497454833984375,0.16875000298023224,-36.618751525878906,-25.89375114440918
1788093361498454800,5.507454833984375,-1.2375000715255737,-37.63125228881836,-24.86250114440918
1788093361508455000,5.517454833984375,-2.4937500953674316,-37.78125,-25.312501907348633
1788093361518454800,5.527454833984375,-0.13125000894069672,-36.618751525878906,-25.593751907348633
1788093361528455000,5.537454833984375,-1.125,-38.79375076293945,-24.450000762939453
1788093361538454800,5.547454833984375,-1.125,-38.79375076293945,-24.450000762939453
1788093361548455000,5.557454833984375,0.9375000596046448,-37.06875228881836,-26.231250762939453
1788093361558454800,5.567454833984375,1.125,-36.16875076293945,-24.375001907348633
1788093361568455000,5.577454833984375,1.125,-36.16875076293945,-24.375001907348633
1788093361578454800,5.587454833984375,0.7875000238418579,-37.20000076293945,-25.312501907348633
1788093361588455000,5.597454833984375,-0.3187500238418579,-37.5,-25.312501907348633
1788093361598454800,5.607454833984375,-0.45000001788139343,-36.63750076293945,-28.012500762939453
1788093361608455000,5.617454833984375,-0.3187500238418579,-37.48125076293945,-24.712501525878906
1788093361618454800,5.627454833984375,-1.6875001192092896,-36.91875076293945,-24.975000381469727
1788093361628455000,5.637454833984375,-0.30000001192092896,-36.91875076293945,-25.743751525878906
1788093361648455000,5.657454833984375,1.2937500476837158,-35.60625076293945,-25.106250762939453
1788093361658454800,5.667454833984375,-1.350000023841858,-35.47500228881836,-25.98750114440918
1788093361668455000,5.677454833984375,0.03750000149011612,-36.1875,-24.975000381469727
1788093361678454800,5.687454833984375,0.3187500238418579,-37.48125076293945,-24.412500381469727
1788093361698454800,5.707454833984375,-1.350000023841858,-35.17500305175781,-26.26875114440918
1788093361708455000,5.717454833984375,0.768750011920929,-37.21875,-26.381250381469727
1788093361718454800,5.727454833984375,0.03750000149011612,-35.90625,-27.075000762939453
1788093361728455000,5.737454833984375,-1.6875001192092896,-36.91875076293945,-24.975000381469727
1788093361738454800,5.747454833984375,-0.30000001192092896,-36.91875076293945,-25.293750762939453
1788093361748455000,5.757454833984375,-0.6000000238418579,-36.900001525878906,-23.92500114440918
1788093361758454800,5.767454833984375,0.30000001192092896,-37.5,-26.08125114440918
1788093361768455000,5.777454833984375,1.40625,-36.900001525878906,-25.012500762939453
1788093361778454800,5.787454833984375,-1.2375000715255737,-37.06875228881836,-25.89375114440918
1788093361788455000,5.797454833984375,0.7875000238418579,-36.48750305175781,-26.043750762939453
1788093361798454800,5.807454833984375,1.3687500953674316,-38.79375076293945,-25.087501525878906
1788093361808455000,5.817454833984375,0.3187500238418579,-36.900001525878906,-24.993751525878906
1788093361818454800,5.827454833984375,-1.537500023841858,-36.618751525878906,-25.575000762939453
1788093361828455000,5.837454833984375,1.1062500476837158,-36.46875,-25.293750762939453
1788093361838454800,5.847454833984375,-0.5625,-34.89375305175781,-25.968751907348633
1788093361848455000,5.857454833984375,-0.4687500298023224,-37.63125228881836,-24.86250114440918
1788093361858454800,5.867454833984375,-0.6000000238418579,-36.46875,-24.67500114440918
1788093361868455000,5.877454833984375,0.7875000238418579,-37.20000076293945,-25.781251907348633
1788093361878454800,5.887454833984375,-1.21875,-36.337501525878906,-25.106250762939453
1788093361888455000,5.897454833984375,-2.3062500953674316,-36.337501525878906,-25.556251525878906
1788093361898454800,5.907454833984375,-0.11250000447034836,-36.03750228881836,-25.106250762939453
1788093361908455000,5.917454833984375,-1.21875,-37.05000305175781,-24.543750762939453
1788093361918454800,5.927454833984375,0.03750000149011612,-35.90625,-26.775001525878906
1788093361928455000,5.937454833984375,0.16875000298023224,-37.06875228881836,-25.912500381469727
1788093361938454800,5.947454833984375,1.3875000476837158,-37.78125,-25.80000114440918
1788093361948455000,5.957454833984375,-1.5187500715255737,-35.625,-26.437501907348633
1788093361958454800,5.967454833984375,1.40625,-36.91875076293945,-26.062501907348633
1788093361968455000,5.977454833984375,-0.30000001192092896,-36.91875076293945,-26.36250114440918
1788093361978454800,5.987454833984375,-1.5562500953674316,-37.35000228881836,-25.912500381469727
1788093361988455000,5.997454833984375,-0.4312500059604645,-36.337501525878906,-25.875001907348633
1788093361998454800,6.007454833984375,-0.48750001192092896,-38.36250305175781,-24.600000381469727
1788093362008455000,6.017454833984375,1.5750000476837158,-36.31875228881836,-25.14375114440918
1788093362018454800,6.027454833984375,0.6375000476837158,-37.05000305175781,-25.162500381469727
1788093362028455000,6.037454833984375,0.375,-35.17500305175781,-25.23750114440918
1788093362038454800,6.047454833984375,-1.03125,-35.45625305175781,-25.687501907348633
1788093362048455000,6.057454833984375,-0.6187500357627869,-37.21875,-26.812501907348633
1788093362058454800,6.067454833984375,0.1875,-36.337501525878906,-25.875001907348633
1788093362068455000,6.077454833984375,0.01875000074505806,-36.20625305175781,-27.093751907348633
1788093362078454800,6.087454833984375,-0.30000001192092896,-36.91875076293945,-26.36250114440918
1788093362088455000,6.097454833984375,1.2375000715255737,-37.06875228881836,-27.281251907348633
1788093362098454800,6.107454833984375,0.8062500357627869,-35.88750076293945,-25.275001525878906
1788093362108455000,6.117454833984375,2.043750047683716,-36.056251525878906,-26.943750381469727
1788093362118454800,6.127454833984375,-0.581250011920929,-35.90625,-26.006250381469727
1788093362128455000,6.137454833984375,0.768750011920929,-37.48125076293945,-25.031251907348633
1788093362138454800,6.147454833984375,2.4750001430511475,-37.21875,-27.150001525878906
1788093362148455000,6.157454833984375,0.3375000059604645,-35.90625,-26.775001525878906
1788093362158454800,6.167454833984375,1.125,-36.1875,-24.975000381469727
1788093362168455000,6.177454833984375,0.1875,-36.03750228881836,-25.125001907348633
1788093362178454800,6.187454833984375,-1.5187500715255737,-36.056251525878906,-26.906251907348633
1788093362188455000,6.197454833984375,0.9750000238418579,-35.60625076293945,-26.475000381469727
1788093362198454800,6.207454833984375,0.03750000149011612,-35.47500228881836,-27.356250762939453
1788093362208455000,6.217454833984375,0.35625001788139343,-35.45625305175781,-25.70625114440918
1788093362218454800,6.227454833984375,1.125,-35.88750076293945,-25.275001525878906
1788093362228455000,6.237454833984375,2.1937501430511475,-36.20625305175781,-27.412500381469727
1788093362238454800,6.247454833984375,0,-37.21875,-27.431251525878906
1788093362248455000,6.257454833984375,0.01875000074505806,-36.48750305175781,-27.39375114440918
1788093362258454800,6.267454833984375,1.2750000953674316,-36.03750228881836,-25.875001907348633
1788093362268455000,6.277454833984375,0.8250000476837158,-35.17500305175781,-26.287500381469727
1788093362278454800,6.287454833984375,-0.7125000357627869,-35.04375076293945,-26.887500762939453
1788093362288455000,6.297454833984375,-0.28125,-35.90625,-26.006250381469727
1788093362298454800,6.307454833984375,1.2375000715255737,-37.35000228881836,-26.231250762939453
1788093362308455000,6.317454833984375,0.16875000298023224,-36.63750076293945,-26.193750381469727
1788093362318454800,6.327454833984375,-1.3875000476837158,-36.91875076293945,-26.793750762939453
1788093362328455000,6.337454833984375,0.6375000476837158,-36.056251525878906,-27.243751525878906
1788093362338454800,6.347454833984375,0.3375000059604645,-35.90625,-27.075000762939453
1788093362348455000,6.357454833984375,-0.28125,-36.48750305175781,-26.043750762939453
1788093362368455000,6.377454833984375,0.3187500238418579,-36.91875076293945,-25.762500762939453
1788093362378454800,6.387454833984375,2.4937500953674316,-36.91875076293945,-26.381250381469727
1788093362388455000,6.397454833984375,0.6187500357627869,-37.05000305175781,-25.61250114440918
1788093362398454800,6.407454833984375,-0.13125000894069672,-36.056251525878906,-26.92500114440918
1788093362408455000,6.417454833984375,-0.13125000894069672,-36.337501525878906,-26.943750381469727
1788093362418454800,6.427454833984375,-1.1812500953674316,-35.32500076293945,-25.837501525878906
1788093362428455000,6.437454833984375,-0.768750011920929,-37.06875228881836,-26.212501525878906
1788093362438454800,6.447454833984375,-1.2000000476837158,-35.32500076293945,-26.887500762939453
1788093362448455000,6.457454833984375,1.5562500953674316,-37.06875228881836,-26.231250762939453
1788093362458454800,6.467454833984375,-1.350000023841858,-35.17500305175781,-25.968751907348633
1788093362468455000,6.477454833984375,0.1875,-36.337501525878906,-25.125001907348633
1788093362478454800,6.487454833984375,1.1062500476837158,-36.1875,-25.743751525878906
1788093362488455000,6.497454833984375,0.03750000149011612,-35.88750076293945,-24.95625114440918
1788093362498454800,6.507454833984375,2.4000000953674316,-34.743751525878906,-25.837501525878906
1788093362508455000,6.517454833984375,1.8375000953674316,-37.80000305175781,-27.76875114440918
1788093362518454800,6.527454833984375,0.1875,-36.03750228881836,-25.575000762939453
1788093362528455000,6.537454833984375,1.5562500953674316,-37.06875228881836,-26.981250762939453
1788093362538454800,6.547454833984375,0.675000011920929,-35.025001525878906,-25.837501525878906
1788093362548455000,6.557454833984375,0.9375000596046448,-37.06875228881836,-26.981250762939453
1788093362558454800,6.567454833984375,-0.30000001192092896,-36.9375,-27.412500381469727
1788093362568455000,6.577454833984375,-1.3875000476837158,-36.91875076293945,-25.293750762939453
1788093362578454800,6.587454833984375,0.8250000476837158,-35.47500228881836,-26.756250381469727
1788093362588455000,6.597454833984375,1.8937500715255737,-35.90625,-26.343751907348633
1788093362598454800,6.607454833984375,0.22500000894069672,-34.743751525878906,-26.118751525878906
1788093362608455000,6.617454833984375,-0.7312500476837158,-35.32500076293945,-26.437501907348633
1788093362618454800,6.627454833984375,-0.7312500476837158,-35.32500076293945,-26.437501907348633
1788093362638454800,6.647454833984375,0.35625001788139343,-35.47500228881836,-26.006250381469727
1788093362648455000,6.657454833984375,-0.6000000238418579,-36.20625305175781,-27.375001907348633
1788093362658454800,6.667454833984375,-1.068750023841858,-36.22500228881836,-28.42500114440918
1788093362668455000,6.677454833984375,1.443750023841858,-35.47500228881836,-27.375001907348633
1788093362678454800,6.687454833984375,0.9375000596046448,-37.06875228881836,-26.531251907348633
1788093362688455000,6.697454833984375,0.8250000476837158,-35.17500305175781,-27.056251525878906
1788093362698454800,6.707454833984375,1.5937501192092896,-35.625,-27.525001525878906
1788093362708455000,6.717454833984375,0.03750000149011612,-35.47500228881836,-27.656251907348633
1788093362718454800,6.727454833984375,-0.4687500298023224,-37.650001525878906,-26.531251907348633
1788093362728455000,6.737454833984375,-1.068750023841858,-36.48750305175781,-26.025001525878906
1788093362738454800,6.747454833984375,-0.11250000447034836,-35.60625076293945,-26.156251907348633
1788093362748455000,6.757454833984375,0.01875000074505806,-36.48750305175781,-26.343751907348633
1788093362758454800,6.767454833984375,0.39375001192092896,-33.86250305175781,-25.631250381469727
1788093362768455000,6.777454833984375,1.5937501192092896,-35.625,-27.225000381469727
1788093362778454800,6.787454833984375,0.01875000074505806,-36.20625305175781,-26.775001525878906
1788093362788455000,6.797454833984375,0.8437500596046448,-34.875,-25.687501907348633
1788093362798454800,6.807454833984375,0.65625,-36.03750228881836,-25.875001907348633
1788093362808455000,6.817454833984375,0.675000011920929,-35.04375076293945,-27.506250381469727
1788093362818454800,6.827454833984375,-0.4125000238418579,-35.0625,-28.837501525878906
1788093362828455000,6.837454833984375,0.65625,-36.056251525878906,-26.475000381469727
1788093362838454800,6.847454833984375,0.39375001192092896,-34.16250228881836,-26.250001907348633
1788093362848455000,6.857454833984375,-1.0500000715255737,-36.1875,-25.256250381469727
1788093362858454800,6.867454833984375,1.125,-35.19375228881836,-28.106250762939453
1788093362868455000,6.877454833984375,0.35625001788139343,-35.47500228881836,-27.056251525878906
1788093362878454800,6.887454833984375,0.20625001192092896,-35.32500076293945,-25.837501525878906
1788093362888455000,6.897454833984375,1.1062500476837158,-35.92500305175781,-28.14375114440918
1788093362898454800,6.907454833984375,0.30000001192092896,-36.9375,-28.781251907348633
1788093362908455000,6.917454833984375,0.956250011920929,-36.03750228881836,-25.875001907348633
1788093362918454800,6.927454833984375,1.40625,-36.91875076293945,-26.83125114440918
1788093362928455000,6.937454833984375,1.5750000476837158,-36.056251525878906,-26.493751525878906
1788093362938454800,6.947454833984375,1.068750023841858,-37.78125,-26.100000381469727
1788093362948455000,6.957454833984375,1.0875000953674316,-36.50625228881836,-28.462501525878906
1788093362958454800,6.967454833984375,0.8250000476837158,-35.17500305175781,-26.756250381469727
1788093362968455000,6.977454833984375,-0.4125000238418579,-35.32500076293945,-26.437501907348633
1788093362978454800,6.987454833984375,2.0250000953674316,-36.63750076293945,-26.512500762939453
1788093362988455000,6.997454833984375,-0.4312500059604645,-35.34375,-27.95625114440918
1788093362998454800,7.007454833984375,0.9750000238418579,-35.04375076293945,-26.887500762939453
1788093363008455000,7.017454833984375,0.6187500357627869,-37.63125228881836,-25.181251525878906
1788093363018454800,7.027454833984375,1.5750000476837158,-36.618751525878906,-26.212501525878906
1788093363028455000,7.037454833984375,2.53125,-35.17500305175781,-26.775001525878906
1788093363038454800,7.047454833984375,2.1750001907348633,-37.20000076293945,-25.781251907348633
1788093363048455000,7.057454833984375,1.9875000715255737,-38.34375,-24.168750762939453
1788093363058454800,7.067454833984375,-0.01875000074505806,-38.23125076293945,-27.168750762939453
1788093363068455000,7.077454833984375,2.0250000953674316,-37.06875228881836,-25.931251525878906
1788093363078454800,7.087454833984375,1.21875,-38.08125305175781,-27.318750381469727
1788093363088455000,7.097454833984375,1.5937501192092896,-35.587501525878906,-24.506250381469727
1788093363098454800,7.107454833984375,0.6375000476837158,-37.05000305175781,-24.11250114440918
1788093363108455000,7.117454833984375,1.3875000476837158,-38.212501525878906,-24.468751907348633
1788093363118454800,7.127454833984375,1.3875000476837158,-37.80000305175781,-26.400001525878906
1788093363128455000,7.137454833984375,1.9875000715255737,-38.36250305175781,-25.218751907348633
1788093363138454800,7.147454833984375,2.043750047683716,-36.337501525878906,-25.89375114440918
1788093363148455000,7.157454833984375,2.15625,-37.5,-26.100000381469727
1788093363158454800,7.167454833984375,1.256250023841858,-36.337501525878906,-26.493751525878906
1788093363168455000,7.177454833984375,2.1750001907348633,-37.20000076293945,-25.33125114440918
1788093363178454800,7.187454833984375,1.8750001192092896,-36.91875076293945,-25.781251907348633
1788093363188455000,7.197454833984375,3.543750047683716,-38.51250076293945,-25.406251907348633
1788093363198454800,7.207454833984375,0.65625,-36.03750228881836,-25.575000762939453
1788093363208455000,7.217454833984375,0.9187500476837158,-38.0625,-25.200000762939453
1788093363218454800,7.227454833984375,0.15000000596046448,-37.650001525878906,-25.931251525878906
1788093363238454800,7.247454833984375,4.050000190734863,-36.60000228881836,-24.11250114440918
1788093363248455000,7.257454833984375,1.3687500953674316,-38.23125076293945,-26.118751525878906
1788093363258454800,7.267454833984375,2.6625001430511475,-36.337501525878906,-26.212501525878906
1788093363268455000,7.277454833984375,2.9625000953674316,-36.618751525878906,-24.86250114440918
1788093363278454800,7.287454833984375,2.512500047683716,-36.1875,-25.743751525878906
1788093363288455000,7.297454833984375,3.918750047683716,-35.90625,-26.36250114440918
1788093363298454800,7.307454833984375,3.750000238418579,-36.31875228881836,-25.61250114440918
1788093363308455000,7.317454833984375,2.981250047683716,-36.337501525878906,-25.61250114440918
1788093363318454800,7.327454833984375,4.03125,-37.63125228881836,-25.218751907348633
1788093363328455000,7.337454833984375,2.137500047683716,-38.23125076293945,-26.887500762939453
1788093363338454800,7.347454833984375,3.2437500953674316,-37.5,-26.868751525878906
1788093363348455000,7.357454833984375,1.2937500476837158,-35.60625076293945,-24.806251525878906
1788093363358454800,7.367454833984375,2.625,-37.63125228881836,-24.900001525878906
1788093363368455000,7.377454833984375,1.21875,-38.36250305175781,-25.218751907348633
1788093363378454800,7.387454833984375,3.3000001907348633,-35.868751525878906,-23.325000762939453
1788093363388455000,7.397454833984375,2.3062500953674316,-38.08125305175781,-25.968751907348633
1788093363398454800,7.407454833984375,3.262500047683716,-37.76250076293945,-23.700000762939453
1788093363408455000,7.417454833984375,3.3937501907348633,-38.08125305175781,-25.98750114440918
1788093363418454800,7.427454833984375,4.181250095367432,-37.48125076293945,-24.76875114440918
1788093363428455000,7.437454833984375,1.9875000715255737,-38.66250228881836,-25.687501907348633
1788093363438454800,7.447454833984375,3.562500238418579,-37.48125076293945,-24.450000762939453
1788093363448455000,7.457454833984375,2.606250047683716,-38.38125228881836,-27.056251525878906
1788093363458454800,7.467454833984375,3.2062501907348633,-39.243751525878906,-26.17500114440918
1788093363468455000,7.477454833984375,2.6437501907348633,-37.35000228881836,-25.950000762939453
1788093363478454800,7.487454833984375,2.7750000953674316,-38.212501525878906,-25.087501525878906
1788093363488455000,7.497454833984375,2.4562501907348633,-38.23125076293945,-26.137500762939453
1788093363498454800,7.507454833984375,4.03125,-37.63125228881836,-24.618751525878906
1788093363508455000,7.517454833984375,2.793750047683716,-37.20000076293945,-26.100000381469727
1788093363518454800,7.527454833984375,3.9000000953674316,-36.900001525878906,-23.981250762939453
1788093363528455000,7.537454833984375,3.6000001430511475,-36.16875076293945,-24.712501525878906
1788093363538454800,7.547454833984375,3.4125001430511475,-37.33125305175781,-24.150001525878906
1788093363548455000,7.557454833984375,2.137500047683716,-38.51250076293945,-26.437501907348633
1788093363558454800,7.567454833984375,1.4250000715255737,-36.1875,-25.743751525878906
1788093363568455000,7.577454833984375,4.012500286102295,-38.34375,-22.837501525878906
1788093363578454800,7.587454833984375,2.9625000953674316,-36.618751525878906,-24.86250114440918
1788093363588455000,7.597454833984375,3.562500238418579,-37.48125076293945,-24.750001907348633
1788093363598454800,7.607454833984375,1.2375000715255737,-37.63125228881836,-24.881250381469727
1788093363608455000,7.617454833984375,1.162500023841858,-39.993751525878906,-28.762500762939453
1788093363618454800,7.627454833984375,2.325000047683716,-37.650001525878906,-26.26875114440918
1788093363628455000,7.637454833984375,3,-35.32500076293945,-26.475000381469727
1788093363638454800,7.647454833984375,1.5562500953674316,-37.06875228881836,-27.58125114440918
1788093363648455000,7.657454833984375,0.3187500238418579,-36.91875076293945,-25.312501907348633
1788093363658454800,7.667454833984375,2.4937500953674316,-36.48750305175781,-26.812501907348633
1788093363668455000,7.677454833984375,2.1937501430511475,-35.90625,-27.093751907348633
1788093363678454800,7.687454833984375,1.256250023841858,-36.35625076293945,-27.562501907348633
1788093363688455000,7.697454833984375,1.125,-35.19375228881836,-27.356250762939453
1788093363698454800,7.707454833984375,1.125,-35.19375228881836,-27.356250762939453
1788093363708455000,7.717454833984375,2.34375,-36.618751525878906,-26.212501525878906
1788093363718454800,7.727454833984375,1.1812500953674316,-33.150001525878906,-26.212501525878906
1788093363728455000,7.737454833984375,1.1812500953674316,-33.150001525878906,-26.212501525878906
1788093363738454800,7.747454833984375,1.1062500476837158,-36.22500228881836,-29.212501525878906
1788093363748455000,7.757454833984375,0.20625001192092896,-35.04375076293945,-27.187501907348633
1788093363758454800,7.767454833984375,-0.9937500357627869,-33.58125305175781,-25.162500381469727
1788093363768455000,7.777454833984375,0.16875000298023224,-36.35625076293945,-27.543750762939453
1788093363778454800,7.787454833984375,1.4625000953674316,-34.462501525878906,-28.087501525878906
1788093363788455000,7.797454833984375,-0.28125,-35.90625,-27.375001907348633
1788093363798454800,7.807454833984375,0.9750000238418579,-35.34375,-27.975000381469727
1788093363818454800,7.827454833984375,-2.2875001430511475,-35.34375,-28.23750114440918
1788093363828455000,7.837454833984375,0.39375001192092896,-33.88125228881836,-27.600000381469727
1788093363838454800,7.847454833984375,0.20625001192092896,-34.76250076293945,-28.537500381469727
1788093363848455000,7.857454833984375,-0.20625001192092896,-32.868751525878906,-28.61250114440918
1788093363858454800,7.867454833984375,1.1812500953674316,-33.58125305175781,-26.681251525878906
1788093363868455000,7.877454833984375,0.22500000894069672,-34.33125305175781,-28.218751907348633
1788093363878454800,7.887454833984375,-0.375,-33.73125076293945,-27.131250381469727
1788093363888455000,7.897454833984375,-2.8687500953674316,-33.31875228881836,-29.512500762939453
1788093363898454800,7.907454833984375,-0.45000001788139343,-36.07500076293945,-29.343751907348633
1788093363908455000,7.917454833984375,-1.03125,-34.462501525878906,-28.068750381469727
1788093363918454800,7.927454833984375,-1.1812500953674316,-34.76250076293945,-27.468751907348633
1788093363928455000,7.937454833984375,-0.675000011920929,-33.30000305175781,-27.412500381469727
1788093363938454800,7.947454833984375,-1.9500000476837158,-34.48125076293945,-29.118751525878906
1788093363948455000,7.957454833984375,-1.6500000953674316,-34.20000076293945,-29.400001525878906
1788093363958454800,7.967454833984375,-1.9312500953674316,-33.1875,-29.962501525878906
1788093363968455000,7.977454833984375,-1.631250023841858,-34.462501525878906,-27.000001907348633
1788093363978454800,7.987454833984375,-1.4812500476837158,-34.03125,-28.181251525878906
1788093363988455000,7.997454833984375,-3.7875001430511475,-32.88750076293945,-29.92500114440918
1788093363998454800,8.007454833984376,-1.9500000476837158,-33.618751525878906,-30.731250762939453
1788093364008455000,8.017454833984376,-1.1437500715255737,-33.03750228881836,-30.262500762939453
1788093364018454800,8.027454833984375,-2.5687501430511475,-33.76875305175781,-30.58125114440918
1788093364028455000,8.037454833984375,-2.2125000953674316,-32.00625228881836,-29.156251907348633
1788093364038454800,8.047454833984375,-1.03125,-34.48125076293945,-29.418750762939453
1788093364048455000,8.057454833984375,-3.637500047683716,-34.03125,-27.86250114440918
1788093364058454800,8.067454833984375,-2.4000000953674316,-33.618751525878906,-29.381250381469727
1788093364068455000,8.077454833984374,-1.6125000715255737,-33.1875,-29.962501525878906
1788093364078454800,8.087454833984374,-1.9312500953674316,-33.60000228881836,-29.08125114440918
1788093364088455000,8.097454833984376,-3.262500047683716,-31.556251525878906,-27.168750762939453
1788093364098454800,8.107454833984375,-1.4250000715255737,-32.025001525878906,-29.775001525878906
1788093364108455000,8.117454833984375,-1.4625000953674316,-33.31875228881836,-29.512500762939453
1788093364118454800,8.127454833984375,-2.1937501430511475,-32.00625228881836,-27.806251525878906
1788093364128455000,8.137454833984375,-1.4812500476837158,-34.33125305175781,-29.568750381469727
1788093364138454800,8.147454833984375,-2.4000000953674316,-33.618751525878906,-29.681251525878906
1788093364148455000,8.157454833984374,-4.40625,-32.625,-31.42500114440918
1788093364158454800,8.167454833984374,-1.8000000715255737,-34.33125305175781,-29.250001907348633
1788093364168455000,8.177454833984376,-1.6125000715255737,-32.88750076293945,-29.662500381469727
1788093364178454800,8.187454833984376,-2.5687501430511475,-34.33125305175781,-28.500001907348633
1788093364188455000,8.197454833984375,-2.700000047683716,-32.88750076293945,-29.043750762939453
1788093364198454800,8.207454833984375,-2.3812501430511475,-32.60625076293945,-30.39375114440918
1788093364208455000,8.217454833984375,-1.631250023841858,-33.900001525878906,-29.400001525878906
1788093364218454800,8.227454833984375,-2.512500047683716,-31.725000381469727,-29.437501907348633
1788093364228455000,8.237454833984375,-3.0187501907348633,-33.60000228881836,-27.543750762939453
1788093364238454800,8.247454833984374,-3.1312501430511475,-32.025001525878906,-29.756250381469727
1788093364248455000,8.257454833984376,-3.3375000953674316,-33.91875076293945,-29.981250762939453
1788093364258454800,8.267454833984376,-2.5500001907348633,-33.30000305175781,-27.843751907348633
1788093364268455000,8.277454833984375,-3.2062501907348633,-34.78125,-29.568750381469727
1788093364278454800,8.287454833984375,-3.3000001907348633,-32.88750076293945,-28.275001525878906
1788093364288455000,8.297454833984375,-2.418750047683716,-34.20000076293945,-29.700000762939453
1788093364298454800,8.307454833984375,-1.7625000476837158,-33.01875305175781,-28.14375114440918
1788093364308455000,8.317454833984375,-3,-32.587501525878906,-28.275001525878906
1788093364318454800,8.327454833984374,-1.7812501192092896,-33.76875305175781,-29.83125114440918
1788093364328455000,8.337454833984374,-1.8000000715255737,-34.33125305175781,-28.200000762939453
1788093364338454800,8.347454833984376,-0.9937500357627869,-33.150001525878906,-27.562501907348633
1788093364348455000,8.357454833984375,-2.7375001907348633,-34.91250228881836,-29.418750762939453
1788093364358454800,8.367454833984375,-2.7562501430511475,-35.493751525878906,-28.387500762939453
1788093364368455000,8.377454833984375,-1.9500000476837158,-34.48125076293945,-29.418750762939453
1788093364378454800,8.387454833984375,-3.0375001430511475,-34.48125076293945,-28.05000114440918
1788093364388455000,8.397454833984375,-3.0187501907348633,-33.60000228881836,-28.312501907348633
1788093364398454800,8.407454833984374,-1.0500000715255737,-35.493751525878906,-28.406251907348633
1788093364408455000,8.417454833984374,-2.231250047683716,-33.31875228881836,-28.162500381469727
1788093364418454800,8.427454833984376,-1.4812500476837158,-34.3125,-27.450000762939453
1788093364428455000,8.437454833984376,-0.7125000357627869,-34.33125305175781,-27.900001525878906
1788093364438454800,8.447454833984375,-2.3062500953674316,-36.07500076293945,-28.575000762939453
1788093364448455000,8.457454833984375,-2.4562501907348633,-35.493751525878906,-29.137500762939453
1788093364458454800,8.467454833984375,-0.9750000238418579,-32.15625,-29.025001525878906
1788093364468455000,8.477454833984375,-1.350000023841858,-35.19375228881836,-28.087501525878906
1788093364478454800,8.487454833984375,-1.8000000715255737,-35.04375076293945,-27.168750762939453
1788093364488455000,8.497454833984374,0.3375000059604645,-36.20625305175781,-27.093751907348633
1788093364498454800,8.507454833984376,-2.25,-33.75,-27.86250114440918
1788093364508455000,8.517454833984376,-1.0500000715255737,-35.19375228881836,-28.687501907348633
1788093364518454800,8.527454833984375,-1.0500000715255737,-35.47500228881836,-27.656251907348633
1788093364528455000,8.537454833984375,-1.0500000715255737,-35.212501525878906,-29.45625114440918
1788093364538454800,8.547454833984375,-2.3812501430511475,-33.150001525878906,-26.943750381469727
1788093364548455000,8.557454833984375,-0.45000001788139343,-36.056251525878906,-27.975000381469727
1788093364558454800,8.567454833984375,-0.5625,-34.91250228881836,-28.687501907348633
1788093364568455000,8.577454833984374,0.1875,-35.34375,-28.556251525878906
1788093364578454800,8.587454833984374,-1.8375000953674316,-36.07500076293945,-27.975000381469727
1788093364598454800,8.607454833984375,-1.3312500715255737,-34.462501525878906,-26.250001907348633
1788093364608455000,8.617454833984375,-1.8000000715255737,-34.743751525878906,-25.80000114440918
1788093364618454800,8.627454833984375,-2.2687501907348633,-34.76250076293945,-28.218751907348633
1788093364638454800,8.647454833984375,-0.13125000894069672,-36.35625076293945,-27.993751525878906
1788093364648455000,8.657454833984374,-1.6687500476837158,-35.47500228881836,-27.637500762939453
1788093364658454800,8.667454833984374,-0.7125000357627869,-34.3125,-26.850000381469727
1788093364668455000,8.677454833984376,-1.818750023841858,-35.64375305175781,-28.256250381469727
1788093364678454800,8.687454833984376,-1.8000000715255737,-34.05000305175781,-29.250001907348633
1788093364688455000,8.697454833984375,-1.03125,-34.48125076293945,-29.418750762939453
1788093364698454800,8.707454833984375,-1.7812501192092896,-34.3125,-26.83125114440918
1788093364708455000,8.717454833984375,-2.325000047683716,-36.65625,-27.993751525878906
1788093364718454800,8.727454833984375,-1.3312500715255737,-34.89375305175781,-27.01875114440918
1788093364728455000,8.737454833984375,-2.887500047683716,-34.76250076293945,-27.150001525878906
1788093364738454800,8.747454833984374,-1.8375000953674316,-36.35625076293945,-26.92500114440918
1788093364748455000,8.757454833984376,-2.8500001430511475,-33.31875228881836,-27.843751907348633
1788093364758454800,8.767454833984376,-0.26250001788139343,-35.47500228881836,-27.656251907348633
1788093364768455000,8.777454833984375,-2.3062500953674316,-36.337501525878906,-26.45625114440918
1788093364778454800,8.787454833984375,-2.90625,-35.0625,-28.51875114440918
1788093364788455000,8.797454833984375,-2.90625,-35.0625,-28.51875114440918
1788093364798454800,8.807454833984375,-1.2000000476837158,-35.32500076293945,-26.437501907348633
1788093364808455000,8.817454833984375,-2.2687501907348633,-35.32500076293945,-26.118751525878906
1788093364818454800,8.827454833984374,-3.843750238418579,-35.493751525878906,-28.368751525878906
1788093364828455000,8.837454833984374,-2.4375,-35.493751525878906,-28.387500762939453
1788093364838454800,8.847454833984376,-0.4312500059604645,-35.0625,-29.306251525878906
1788093364848455000,8.857454833984375,-2.7562501430511475,-35.92500305175781,-27.037500381469727
1788093364858454800,8.867454833984375,-0.9937500357627869,-33.86250305175781,-25.931251525878906
1788093364868455000,8.877454833984375,-1.818750023841858,-35.34375,-27.48750114440918
1788093364878454800,8.887454833984375,-1.631250023841858,-34.462501525878906,-27.30000114440918
1788093364888455000,8.897454833984375,-2.418750047683716,-34.181251525878906,-28.031251907348633
1788093364898454800,8.907454833984374,-1.2000000476837158,-35.34375,-27.48750114440918
1788093364908455000,8.917454833984374,-3.356250047683716,-35.17500305175781,-26.250001907348633
1788093364918454800,8.927454833984376,-2.4562501907348633,-36.20625305175781,-27.056251525878906
1788093364928455000,8.937454833984376,-1.9687501192092896,-35.47500228881836,-25.968751907348633
1788093364938454800,8.947454833984375,-4.59375,-35.04375076293945,-26.381250381469727
1788093364948455000,8.957454833984375,-2.90625,-35.34375,-28.537500381469727
1788093364958454800,8.967454833984375,-0.7125000357627869,-34.76250076293945,-27.918750762939453
1788093364968455000,8.977454833984375,0.26250001788139343,-33,-27.11250114440918
1788093364978454800,8.987454833984375,-3.075000047683716,-36.1875,-24.937501907348633
1788093364988455000,8.997454833984374,-3.375000238418579,-36.20625305175781,-26.287500381469727
1788093364998454800,9.007454833984376,-2.34375,-37.650001525878906,-26.512500762939453
1788093365008455000,9.017454833984376,-1.8562500476837158,-37.06875228881836,-26.193750381469727
1788093365018454800,9.027454833984375,-2.4562501907348633,-36.20625305175781,-27.056251525878906
1788093365028455000,9.037454833984375,-3.637500047683716,-34.3125,-25.762500762939453
1788093365038454800,9.047454833984375,-2.625,-36.63750076293945,-27.525001525878906
1788093365048455000,9.057454833984375,-3.2062501907348633,-35.0625,-27.918750762939453
1788093365058454800,9.067454833984375,-2.25,-34.3125,-25.781251907348633
1788093365068455000,9.077454833984374,-2.7375001907348633,-34.89375305175781,-26.250001907348633
1788093365078454800,9.087454833984374,-2.887500047683716,-34.76250076293945,-28.818750381469727
1788093365088455000,9.097454833984376,-3.8062500953674316,-34.16250228881836,-26.212501525878906
1788093365098454800,9.107454833984375,-3.9562501907348633,-34.3125,-26.062501907348633
1788093365118454800,9.127454833984375,-4.462500095367432,-35.493751525878906,-28.668750762939453
1788093365128455000,9.137454833984375,-3,-33.16875076293945,-27.543750762939453
1788093365138454800,9.147454833984375,-3.8062500953674316,-34.181251525878906,-27.562501907348633
1788093365148455000,9.157454833984374,-4.012500286102295,-36.07500076293945,-27.48750114440918
1788093365158454800,9.167454833984374,-2.4000000953674316,-33.900001525878906,-28.33125114440918
1788093365168455000,9.177454833984376,-3.6937501430511475,-35.625,-27.468751907348633
1788093365178454800,9.187454833984376,-5.175000190734863,-32.88750076293945,-28.556251525878906
1788093365198454800,9.207454833984375,-3.0187501907348633,-33.60000228881836,-27.243751525878906
1788093365208455000,9.217454833984375,-2.4000000953674316,-33.60000228881836,-27.262500762939453
1788093365218454800,9.227454833984375,-3.2250001430511475,-35.625,-27.48750114440918
1788093365228455000,9.237454833984375,-3.8062500953674316,-34.48125076293945,-28.33125114440918
1788093365238454800,9.247454833984374,-3.3375000953674316,-34.181251525878906,-28.031251907348633
1788093365248455000,9.257454833984376,-4.256250381469727,-33.31875228881836,-28.443750381469727
1788093365258454800,9.267454833984376,-3.825000047683716,-34.89375305175781,-26.700000762939453
1788093365268455000,9.277454833984375,-2.5687501430511475,-34.33125305175781,-27.881250381469727
1788093365278454800,9.287454833984375,-3.8625001907348633,-36.22500228881836,-29.45625114440918
1788093365288455000,9.297454833984375,-5.043750286102295,-34.05000305175781,-28.162500381469727
1788093365298454800,9.307454833984375,-2.4375,-35.19375228881836,-26.718751907348633
1788093365308455000,9.317454833984375,-4.481250286102295,-35.92500305175781,-28.687501907348633
1788093365318454800,9.327454833984374,-3.9562501907348633,-33.75,-28.162500381469727
1788093365328455000,9.337454833984374,-4.21875,-32.4375,-27.037500381469727
1788093365338454800,9.347454833984376,-3.656250238418579,-34.03125,-28.162500381469727
1788093365348455000,9.357454833984375,-4.443750381469727,-35.212501525878906,-28.350000381469727
1788093365358454800,9.367454833984375,-4.875,-33.16875076293945,-28.275001525878906
1788093365368455000,9.377454833984375,-5.793750286102295,-33.16875076293945,-28.556251525878906
1788093365378454800,9.387454833984375,-5.512500286102295,-34.462501525878906,-27.262500762939453
1788093365388455000,9.397454833984375,-3.7875001430511475,-33.88125228881836,-25.89375114440918
1788093365398454800,9.407454833984374,-4.425000190734863,-33.900001525878906,-28.012500762939453
1788093365408455000,9.417454833984374,-4.3125,-35.64375305175781,-28.537500381469727
1788093365418454800,9.427454833984376,-5.662500381469727,-34.33125305175781,-28.162500381469727
1788093365428455000,9.437454833984376,-4.462500095367432,-35.493751525878906,-28.668750762939453
1788093365438454800,9.447454833984375,-4.575000286102295,-34.03125,-26.043750762939453
1788093365448455000,9.457454833984375,-5.662500381469727,-34.743751525878906,-25.762500762939453
1788093365458454800,9.467454833984375,-3.9562501907348633,-34.743751525878906,-25.481250762939453
1788093365468455000,9.477454833984375,-6,-35.34375,-26.83125114440918
1788093365478454800,9.487454833984375,-5.381250381469727,-35.34375,-27.150001525878906
1788093365488455000,9.497454833984374,-3.6187500953674316,-32.71875,-27.056251525878906
1788093365498454800,9.507454833984376,-4.293750286102295,-35.34375,-28.51875114440918
1788093365508455000,9.517454833984376,-5.53125,-35.47500228881836,-25.950000762939453
1788093365518454800,9.527454833984375,-4.425000190734863,-34.16250228881836,-25.89375114440918
1788093365528455000,9.537454833984375,-4.912500381469727,-34.91250228881836,-29.100000381469727
1788093365538454800,9.547454833984375,-4.931250095367432,-35.493751525878906,-27.618751525878906
1788093365548455000,9.557454833984375,-5.175000190734863,-33.60000228881836,-27.225000381469727
1788093365558454800,9.567454833984375,-4.275000095367432,-34.743751525878906,-26.381250381469727
1788093365568455000,9.577454833984374,-4.631250381469727,-36.337501525878906,-25.537500381469727
1788093365578454800,9.587454833984374,-4.650000095367432,-36.375,-29.306251525878906
1788093365588455000,9.597454833984376,-3.9937500953674316,-35.625,-27.468751907348633
1788093365598454800,9.607454833984375,-3.9937500953674316,-35.34375,-27.468751907348633
1788093365608455000,9.617454833984375,-3.843750238418579,-35.92500305175781,-27.037500381469727
1788093365618454800,9.627454833984375,-3.825000047683716,-35.17500305175781,-25.950000762939453
1788093365628455000,9.637454833984375,-5.662500381469727,-34.33125305175781,-27.093751907348633
1788093365638454800,9.647454833984375,-4.59375,-35.025001525878906,-24.731250762939453
1788093365648455000,9.657454833984374,-5.231250286102295,-35.90625,-26.26875114440918
1788093365658454800,9.667454833984374,-3.075000047683716,-36.1875,-24.937501907348633
1788093365668455000,9.677454833984376,-4.950000286102295,-36.48750305175781,-25.98750114440918
1788093365678454800,9.687454833984376,-6.618750095367432,-35.19375228881836,-27.281251907348633
1788093365688455000,9.697454833984375,-3.1125001907348633,-37.78125,-24.993751525878906
1788093365698454800,9.707454833984375,-5.700000286102295,-35.625,-26.400001525878906
1788093365708455000,9.717454833984375,-4.3125,-36.056251525878906,-27.187501907348633
1788093365718454800,9.727454833984375,-2.7375001907348633,-35.19375228881836,-27.318750381469727
1788093365728455000,9.737454833984375,-3.6750001907348633,-35.32500076293945,-26.100000381469727
1788093365738454800,9.747454833984374,-3.0562500953674316,-35.17500305175781,-25.950000762939453
1788093365748455000,9.757454833984376,-5.0625,-35.04375076293945,-25.781251907348633
1788093365758454800,9.767454833984376,-4.96875,-37.5,-25.725000381469727
1788093365768455000,9.777454833984375,-4.931250095367432,-36.48750305175781,-25.23750114440918
1788093365778454800,9.787454833984375,-4.181250095367432,-37.21875,-25.275001525878906
1788093365788455000,9.797454833984375,-4.143750190734863,-35.47500228881836,-26.718751907348633
1788093365798454800,9.807454833984375,-4.931250095367432,-36.48750305175781,-24.937501907348633
1788093365808455000,9.817454833984375,-3.7125000953674316,-36.63750076293945,-26.156251907348633
1788093365818454800,9.827454833984374,-3.075000047683716,-36.1875,-24.637500762939453
1788093365838454800,9.847454833984376,-4.631250381469727,-36.35625076293945,-26.437501907348633
1788093365848455000,9.857454833984375,-5.418750286102295,-37.06875228881836,-26.45625114440918
1788093365858454800,9.867454833984375,-3.8625001907348633,-36.50625228881836,-27.056251525878906
1788093365868455000,9.877454833984375,-3.8625001907348633,-36.50625228881836,-27.056251525878906
1788093365878454800,9.887454833984375,-5.381250381469727,-35.32500076293945,-26.08125114440918
1788093365888455000,9.897454833984375,-5.381250381469727,-35.32500076293945,-26.08125114440918
1788093365898454800,9.907454833984374,-3.1125001907348633,-38.212501525878906,-24.712501525878906
1788093365908455000,9.917454833984374,-4.3125,-36.35625076293945,-26.887500762939453
1788093365918454800,9.927454833984376,-3.731250047683716,-37.368751525878906,-26.493751525878906
1788093365928455000,9.937454833984376,-3.8625001907348633,-36.91875076293945,-25.256250381469727
1788093365938454800,9.947454833984375,-5.081250190734863,-36.337501525878906,-24.76875114440918
1788093365948455000,9.957454833984375,-4.950000286102295,-37.21875,-25.70625114440918
1788093365958454800,9.967454833984375,-4.143750190734863,-35.47500228881836,-25.950000762939453
1788093365968455000,9.977454833984375,-4.143750190734863,-36.1875,-24.618751525878906
1788093365978454800,9.987454833984375,-4.931250095367432,-36.48750305175781,-25.23750114440918
1788093365988455000,9.997454833984374,-5.700000286102295,-36.056251525878906,-25.818750381469727
1788093365998454800,10.007454833984376,-3.2062501907348633,-35.60625076293945,-25.51875114440918
1788093366008455000,10.017454833984376,-3.6750001907348633,-35.32500076293945,-24.750001907348633
1788093366018454800,10.027454833984375,-3.262500047683716,-37.650001525878906,-25.14375114440918
1788093366028455000,10.037454833984375,-3.6937501430511475,-36.618751525878906,-24.806251525878906
1788093366038454800,10.047454833984375,-3.2437500953674316,-36.618751525878906,-25.106250762939453
1788093366048455000,10.057454833984375,-3.8812501430511475,-37.5,-25.743751525878906
1788093366058454800,10.067454833984375,-3.262500047683716,-38.08125305175781,-25.162500381469727
1788093366068455000,10.077454833984374,-4.650000095367432,-37.368751525878906,-26.17500114440918
1788093366078454800,10.087454833984374,-1.8375000953674316,-36.056251525878906,-25.856250762939453
1788093366088455000,10.097454833984376,-5.587500095367432,-37.5,-25.725000381469727
1788093366098454800,10.107454833984375,-3.9937500953674316,-36.03750228881836,-25.068750381469727
1788093366108455000,10.117454833984375,-2.793750047683716,-37.21875,-26.793750762939453
1788093366118454800,10.127454833984375,-3.8812501430511475,-37.5,-24.975000381469727
1788093366128455000,10.137454833984375,-3.7125000953674316,-36.63750076293945,-26.156251907348633
1788093366138454800,10.147454833984375,-4.03125,-37.35000228881836,-24.075000762939453
1788093366148455000,10.157454833984374,-3.6937501430511475,-36.337501525878906,-26.137500762939453
1788093366158454800,10.167454833984374,-4.125,-35.17500305175781,-25.950000762939453
1788093366168455000,10.177454833984376,-3.9750001430511475,-35.04375076293945,-25.781251907348633
1788093366178454800,10.187454833984376,-2.71875,-34.875,-24.881250381469727
1788093366188455000,10.197454833984375,-3.843750238418579,-35.90625,-25.668750762939453
1788093366198454800,10.207454833984375,-4.96875,-37.5,-25.275001525878906
1788093366208455000,10.217454833984375,-2.325000047683716,-37.63125228881836,-24.843751907348633
1788093366218454800,10.227454833984375,-3.9000000953674316,-38.53125,-26.08125114440918
1788093366228455000,10.237454833984375,-4.162500381469727,-36.48750305175781,-25.98750114440918
1788093366238454800,10.247454833984374,-3.2250001430511475,-36.337501525878906,-24.787500381469727
1788093366248455000,10.257454833984376,-4.012500286102295,-36.618751525878906,-25.087501525878906
1788093366258454800,10.267454833984376,-2.3062500953674316,-36.337501525878906,-25.106250762939453
1788093366268455000,10.277454833984375,-4.181250095367432,-37.21875,-27.075000762939453
1788093366278454800,10.287454833984375,-3.8625001907348633,-36.48750305175781,-26.306251525878906
1788093366288455000,10.297454833984375,-4.462500095367432,-35.90625,-26.26875114440918
1788093366298454800,10.307454833984375,-4.481250286102295,-36.48750305175781,-25.23750114440918
1788093366318454800,10.327454833984374,-4.181250095367432,-37.20000076293945,-23.90625
1788093366328455000,10.337454833984374,-4.612500190734863,-36.056251525878906,-25.51875114440918
1788093366338454800,10.347454833984376,-4.162500381469727,-36.50625228881836,-27.356250762939453
1788093366348455000,10.357454833984375,-4.3125,-36.337501525878906,-25.537500381469727
1788093366358454800,10.367454833984375,-3.8625001907348633,-36.48750305175781,-26.306251525878906
1788093366368455000,10.377454833984375,-4.931250095367432,-35.90625,-25.968751907348633
1788093366378454800,10.387454833984375,-3.750000238418579,-38.66250228881836,-25.181251525878906
1788093366388455000,10.397454833984375,-4.462500095367432,-35.88750076293945,-24.30000114440918
1788093366398454800,10.407454833984374,-2.625,-37.06875228881836,-25.575000762939453
1788093366408455000,10.417454833984374,-2.6437501907348633,-37.650001525878906,-25.61250114440918
1788093366418454800,10.427454833984376,-4.012500286102295,-36.618751525878906,-24.037500381469727
1788093366428455000,10.437454833984376,-3.8812501430511475,-37.5,-24.975000381469727
1788093366438454800,10.447454833984375,-3.0562500953674316,-35.90625,-25.98750114440918
1788093366448455000,10.457454833984375,-5.381250381469727,-35.625,-25.80000114440918
1788093366458454800,10.467454833984375,-3.9750001430511475,-34.743751525878906,-25.781251907348633
1788093366468455000,10.477454833984375,-4.668750286102295,-38.10000228881836,-26.512500762939453
1788093366478454800,10.487454833984375,-4.518750190734863,-38.23125076293945,-26.36250114440918
1788093366488455000,10.497454833984374,-4.181250095367432,-37.21875,-26.025001525878906
1788093366498454800,10.507454833984376,-3.4312500953674316,-37.80000305175781,-26.36250114440918
1788093366508455000,10.517454833984376,-4.181250095367432,-36.9375,-27.075000762939453
1788093366518454800,10.527454833984375,-4.59375,-35.60625076293945,-24
1788093366528455000,10.537454833984375,-4.143750190734863,-35.90625,-25.218751907348633
1788093366538454800,10.547454833984375,-3.375000238418579,-35.47500228881836,-26.26875114440918
1788093366548455000,10.557454833984375,-5.418750286102295,-37.06875228881836,-25.106250762939453
1788093366558454800,10.567454833984375,-2.9250001907348633,-36.35625076293945,-26.906251907348633
1788093366568455000,10.577454833984374,-2.7375001907348633,-35.47500228881836,-26.26875114440918
1788093366578454800,10.587454833984374,-2.7750000953674316,-36.91875076293945,-25.275001525878906
1788093366588455000,10.597454833984376,-5.081250190734863,-36.056251525878906,-26.868751525878906
1788093366598454800,10.607454833984375,-3.4312500953674316,-38.51250076293945,-25.33125114440918
1788093366608455000,10.617454833984375,-2.0250000953674316,-37.78125,-25.312501907348633
1788093366618454800,10.627454833984375,-3.075000047683716,-36.46875,-24.656251907348633
1788093366638454800,10.647454833984375,-3.2437500953674316,-36.63750076293945,-25.556251525878906
1788093366648455000,10.657454833984374,-4.462500095367432,-36.48750305175781,-24.937501907348633
1788093366658454800,10.667454833984374,-5.268750190734863,-37.5,-25.275001525878906
1788093366668455000,10.677454833984376,-3.8625001907348633,-36.91875076293945,-26.025001525878906
1788093366678454800,10.687454833984376,-1.3875000476837158,-36.91875076293945,-25.293750762939453
1788093366688455000,10.697454833984375,-1.5,-35.32500076293945,-26.437501907348633
1788093366698454800,10.707454833984375,-4.293750286102295,-35.34375,-27.150001525878906
1788093366708455000,10.717454833984375,-3.843750238418579,-35.92500305175781,-27.637500762939453
1788093366718454800,10.727454833984375,-2.7750000953674316,-36.91875076293945,-25.275001525878906
1788093366728455000,10.737454833984375,-1.8000000715255737,-35.306251525878906,-24.76875114440918
1788093366738454800,10.747454833984374,-3.843750238418579,-35.90625,-26.73750114440918
1788093366748455000,10.757454833984376,-3.9937500953674316,-35.625,-25.818750381469727
1788093366758454800,10.767454833984376,-2.9250001907348633,-36.337501525878906,-26.45625114440918
1788093366768455000,10.777454833984375,-3.9937500953674316,-36.056251525878906,-25.837501525878906
1788093366778454800,10.787454833984375,-2.7750000953674316,-36.20625305175781,-27.056251525878906
1788093366788455000,10.797454833984375,-1.5562500953674316,-37.63125228881836,-25.162500381469727
1788093366798454800,10.807454833984375,-1.9875000715255737,-35.90625,-25.98750114440918
1788093366808455000,10.817454833984375,-4.012500286102295,-36.337501525878906,-25.537500381469727
1788093366818454800,10.827454833984374,-2.8125,-37.80000305175781,-26.36250114440918
1788093366828455000,10.837454833984374,-3.8812501430511475,-37.21875,-26.325000762939453
1788093366838454800,10.847454833984376,-2.7750000953674316,-36.91875076293945,-26.025001525878906
1788093366848455000,10.857454833984375,-2.887500047683716,-35.306251525878906,-23.100000381469727
1788093366858454800,10.867454833984375,-4.181250095367432,-37.21875,-25.275001525878906
1788093366868455000,10.877454833984375,-3.4125001430511475,-36.9375,-26.775001525878906
1788093366878454800,10.887454833984375,-3.731250047683716,-37.368751525878906,-26.193750381469727
1788093366888455000,10.897454833984375,-3.2250001430511475,-36.337501525878906,-25.537500381469727
1788093366898454800,10.907454833984374,-3.3937501907348633,-36.20625305175781,-27.356250762939453
1788093366908455000,10.917454833984374,-3.075000047683716,-36.1875,-25.687501907348633
1788093366918454800,10.927454833984376,-3.356250047683716,-34.89375305175781,-26.700000762939453
1788093366928455000,10.937454833984376,-2.2875001430511475,-36.31875228881836,-24.037500381469727
1788093366938454800,10.947454833984375,-2.90625,-35.625,-27.187501907348633
1788093366948455000,10.957454833984375,-2.90625,-35.625,-27.187501907348633
1788093366958454800,10.967454833984375,-3.281250238418579,-38.08125305175781,-26.531251907348633
1788093366968455000,10.977454833984375,-1.9875000715255737,-36.1875,-25.256250381469727
1788093366978454800,10.987454833984375,-1.7062500715255737,-37.20000076293945,-25.293750762939453
1788093366988455000,10.997454833984374,-3.093750238418579,-36.9375,-27.075000762939453
1788093367008455000,11.017454833984376,-1.9687501192092896,-35.47500228881836,-26.287500381469727
1788093367018454800,11.027454833984375,-3.2062501907348633,-35.32500076293945,-26.118751525878906
1788093367028455000,11.037454833984375,-1.6875001192092896,-36.20625305175781,-26.306251525878906
1788093367038454800,11.047454833984375,-2.606250047683716,-36.337501525878906,-24.806251525878906
1788093367048455000,11.057454833984375,-4.125,-35.17500305175781,-25.950000762939453
1788093367058454800,11.067454833984375,-3.6937501430511475,-36.056251525878906,-26.137500762939453
1788093367068455000,11.077454833984374,-3.8062500953674316,-34.462501525878906,-27.281251907348633
1788093367078454800,11.087454833984374,-2.3062500953674316,-37.05000305175781,-24.525001525878906
1788093367088455000,11.097454833984376,-2.4375,-35.47500228881836,-25.668750762939453
1788093367098454800,11.107454833984375,-3.843750238418579,-36.48750305175781,-25.23750114440918
1788093367108455000,11.117454833984375,-1.03125,-35.45625305175781,-25.23750114440918
1788093367118454800,11.127454833984375,-2.9250001907348633,-36.63750076293945,-26.156251907348633
1788093367128455000,11.137454833984375,-4.012500286102295,-36.35625076293945,-26.906251907348633
1788093367138454800,11.147454833984375,-2.0250000953674316,-37.78125,-24.712501525878906
1788093367148455000,11.157454833984374,-3.0562500953674316,-35.90625,-25.98750114440918
1788093367168455000,11.177454833984376,-2.4750001430511475,-37.21875,-26.043750762939453
1788093367178454800,11.187454833984376,-3.2250001430511475,-36.337501525878906,-24.48750114440918
1788093367188455000,11.197454833984375,-2.0250000953674316,-37.21875,-26.793750762939453
1788093367198454800,11.207454833984375,-1.6500000953674316,-35.17500305175781,-25.668750762939453
1788093367208455000,11.217454833984375,-3.0375001430511475,-35.17500305175781,-25.650001525878906
1788093367218454800,11.227454833984375,-2.4750001430511475,-36.9375,-26.793750762939453
1788093367238454800,11.247454833984374,-3.2250001430511475,-35.625,-27.187501907348633
1788093367248455000,11.257454833984376,-1.350000023841858,-35.47500228881836,-26.73750114440918
1788093367258454800,11.267454833984376,-2.4562501907348633,-35.90625,-26.73750114440918
1788093367268455000,11.277454833984375,-2.90625,-35.32500076293945,-26.418750762939453
1788093367278454800,11.287454833984375,-3.0375001430511475,-34.875,-25.181251525878906
1788093367288455000,11.297454833984375,-3.0562500953674316,-35.47500228881836,-26.26875114440918
1788093367298454800,11.307454833984375,-1.818750023841858,-35.34375,-27.187501907348633
1788093367308455000,11.317454833984375,-2.4375,-35.19375228881836,-27.01875114440918
1788093367318454800,11.327454833984374,-3.0375001430511475,-34.89375305175781,-26.250001907348633
1788093367328455000,11.337454833984374,-0.581250011920929,-35.47500228881836,-27.056251525878906
1788093367338454800,11.347454833984376,-3.0375001430511475,-34.875,-25.181251525878906
1788093367348455000,11.357454833984375,-2.5875000953674316,-35.625,-26.437501907348633
1788093367358454800,11.367454833984375,-4.293750286102295,-35.34375,-26.850000381469727
1788093367368455000,11.377454833984375,-2.9250001907348633,-36.63750076293945,-26.156251907348633
1788093367378454800,11.387454833984375,-2.325000047683716,-37.06875228881836,-25.89375114440918
1788093367388455000,11.397454833984375,-2.71875,-34.462501525878906,-26.981250762939453
1788093367398454800,11.407454833984374,-2.5875000953674316,-35.32500076293945,-25.818750381469727
1788093367418454800,11.427454833984376,-3.075000047683716,-35.90625,-26.287500381469727
1788093367428455000,11.437454833984376,-0.75,-36.056251525878906,-26.156251907348633
1788093367438454800,11.447454833984375,-3.2062501907348633,-35.32500076293945,-26.118751525878906
1788093367448455000,11.457454833984375,-4.125,-34.91250228881836,-27.600000381469727
1788093367458454800,11.467454833984375,-3.3375000953674316,-34.462501525878906,-25.931251525878906
1788093367468455000,11.477454833984375,-1.631250023841858,-34.462501525878906,-26.250001907348633
1788093367478454800,11.487454833984375,-3.8625001907348633,-36.91875076293945,-26.325000762939453
1788093367488455000,11.497454833984374,-3.2250001430511475,-36.31875228881836,-24.037500381469727
1788093367498454800,11.507454833984376,-2.7375001907348633,-35.17500305175781,-26.26875114440918
1788093367518454800,11.527454833984375,-3.6750001907348633,-35.60625076293945,-25.51875114440918
1788093367528455000,11.537454833984375,-5.662500381469727,-34.743751525878906,-25.012500762939453
1788093367538454800,11.547454833984375,-5.193750381469727,-34.462501525878906,-25.593751907348633
1788093367548455000,11.557454833984375,-4.537500381469727,-33.28125,-24.95625114440918
1788093367558454800,11.567454833984375,-2.4375,-35.90625,-26.287500381469727
1788093367568455000,11.577454833984374,-2.5875000953674316,-35.04375076293945,-26.100000381469727
1788093367578454800,11.587454833984374,-4.275000095367432,-34.76250076293945,-27.131250381469727
1788093367588455000,11.597454833984376,-3.8062500953674316,-34.181251525878906,-27.262500762939453
1788093367598454800,11.607454833984375,-4.443750381469727,-34.89375305175781,-26.981250762939453
1788093367608455000,11.617454833984375,-3.9937500953674316,-35.34375,-27.168750762939453
1788093367618454800,11.627454833984375,-3.9750001430511475,-35.32500076293945,-26.400001525878906
1788093367628455000,11.637454833984375,-3.7125000953674316,-37.35000228881836,-24.825000762939453
1788093367638454800,11.647454833984375,-5.0625,-35.32500076293945,-26.100000381469727
1788093367648455000,11.657454833984374,-5.625,-32.71875,-27.037500381469727
1788093367658454800,11.667454833984374,-3.0375001430511475,-35.17500305175781,-25.650001525878906
1788093367668455000,11.677454833984376,-3.0375001430511475,-34.875,-24.881250381469727
1788093367678454800,11.687454833984376,-4.575000286102295,-34.3125,-26.36250114440918
1788093367688455000,11.697454833984375,-4.125,-34.89375305175781,-25.631250381469727
1788093367698454800,11.707454833984375,-5.025000095367432,-33.75,-27.093751907348633
1788093367708455000,11.717454833984375,-2.5875000953674316,-35.04375076293945,-26.100000381469727
1788093367718454800,11.727454833984375,-3.168750047683716,-33.73125076293945,-26.043750762939453
1788093367728455000,11.737454833984375,-4.256250381469727,-34.03125,-26.043750762939453
1788093367738454800,11.747454833984374,-2.90625,-35.32500076293945,-26.418750762939453
1788093367748455000,11.757454833984376,-5.512500286102295,-34.181251525878906,-28.012500762939453
1788093367758454800,11.767454833984376,-6.318750381469727,-35.47500228881836,-26.681251525878906
1788093367768455000,11.777454833984375,-3.731250047683716,-37.38750076293945,-27.993751525878906
1788093367778454800,11.787454833984375,-6.412500381469727,-33.30000305175781,-26.306251525878906
1788093367788455000,11.797454833984375,-5.0625,-34.76250076293945,-27.431251525878906
1788093367798454800,11.807454833984375,-5.943750381469727,-33.30000305175781,-25.387500762939453
1788093367808455000,11.817454833984375,-3.356250047683716,-34.89375305175781,-26.700000762939453
1788093367818454800,11.827454833984374,-4.893750190734863,-34.462501525878906,-26.662500381469727
1788093367828455000,11.837454833984374,-3.825000047683716,-35.17500305175781,-25.950000762939453
1788093367838454800,11.847454833984376,-6.300000190734863,-34.91250228881836,-27.262500762939453
1788093367848455000,11.857454833984375,-5.512500286102295,-34.181251525878906,-26.943750381469727
1788093367858454800,11.867454833984375,-5.831250190734863,-34.462501525878906,-26.962501525878906
1788093367868455000,11.877454833984375,-4.875,-34.16250228881836,-26.193750381469727
1788093367878454800,11.887454833984375,-4.256250381469727,-33.31875228881836,-29.193750381469727
1788093367888455000,11.897454833984375,-4.275000095367432,-34.33125305175781,-27.11250114440918
1788093367898454800,11.907454833984374,-6.581250190734863,-33.16875076293945,-28.556251525878906
1788093367908455000,11.917454833984374,-5.831250190734863,-34.20000076293945,-28.61250114440918
1788093367918454800,11.927454833984376,-5.962500095367432,-33.75,-26.775001525878906
1788093367928455000,11.937454833984376,-5.8125,-33.88125228881836,-26.92500114440918
1788093367938454800,11.947454833984375,-5.34375,-34.3125,-26.343751907348633
1788093367948455000,11.957454833984375,-5.8125,-33.900001525878906,-27.993751525878906
1788093367958454800,11.967454833984375,-3.9562501907348633,-34.33125305175781,-27.412500381469727
1788093367968455000,11.977454833984375,-3.9562501907348633,-34.01250076293945,-26.043750762939453
1788093367978454800,11.987454833984375,-5.868750095367432,-36.20625305175781,-26.718751907348633
1788093367988455000,11.997454833984374,-4.556250095367432,-33.30000305175781,-27.375001907348633
1788093367998454800,12.007454833984376,-6.712500095367432,-33.01875305175781,-26.73750114440918
1788093368008455000,12.017454833984376,-5.212500095367432,-34.89375305175781,-25.162500381469727
1788093368018454800,12.027454833984375,-5.212500095367432,-34.89375305175781,-25.162500381469727
1788093368028455000,12.037454833984375,-3.3375000953674316,-33.88125228881836,-27.262500762939453
1788093368038454800,12.047454833984375,-4.931250095367432,-36.20625305175781,-25.968751907348633
1788093368048455000,12.057454833984375,-4.931250095367432,-36.20625305175781,-25.968751907348633
1788093368058454800,12.067454833984375,-6.768750190734863,-35.04375076293945,-27.11250114440918
1788093368068455000,12.077454833984374,-5.400000095367432,-36.056251525878906,-26.418750762939453
1788093368078454800,12.087454833984374,-5.043750286102295,-34.743751525878906,-25.762500762939453
1788093368088455000,12.097454833984376,-5.831250190734863,-34.48125076293945,-28.312501907348633
1788093368098454800,12.107454833984375,-5.943750381469727,-32.71875,-27.037500381469727
1788093368108455000,12.117454833984375,-5.943750381469727,-32.71875,-27.037500381469727
1788093368118454800,12.127454833984375,-4.575000286102295,-34.03125,-27.86250114440918
1788093368128455000,12.137454833984375,-6.318750381469727,-35.493751525878906,-28.05000114440918
1788093368138454800,12.147454833984375,-5.212500095367432,-34.48125076293945,-27.562501907348633
1788093368148455000,12.157454833984374,-3.9750001430511475,-34.743751525878906,-25.781251907348633
1788093368158454800,12.167454833984374,-7.106250286102295,-36.35625076293945,-25.80000114440918
1788093368168455000,12.177454833984376,-4.631250381469727,-36.35625076293945,-26.887500762939453
1788093368178454800,12.187454833984376,-5.700000286102295,-35.36250305175781,-28.500001907348633
1788093368188455000,12.197454833984375,-7.256250381469727,-35.493751525878906,-27.58125114440918
1788093368198454800,12.207454833984375,-5.25,-35.92500305175781,-28.068750381469727
1788093368208455000,12.217454833984375,-7.218750476837158,-33.900001525878906,-28.275001525878906
1788093368218454800,12.227454833984375,-5.868750095367432,-35.92500305175781,-27.01875114440918
1788093368228455000,12.237454833984375,-4.143750190734863,-35.493751525878906,-28.668750762939453
1788093368238454800,12.247454833984374,-3.825000047683716,-35.19375228881836,-26.700000762939453
1788093368248455000,12.257454833984376,-4.293750286102295,-35.625,-26.118751525878906
1788093368258454800,12.267454833984376,-5.737500190734863,-37.368751525878906,-25.556251525878906
1788093368268455000,12.277454833984375,-5.868750095367432,-35.92500305175781,-27.318750381469727
1788093368278454800,12.287454833984375,-5.081250190734863,-35.64375305175781,-27.918750762939453
1788093368288455000,12.297454833984375,-4.275000095367432,-34.743751525878906,-25.012500762939453
1788093368298454800,12.307454833984375,-5.962500095367432,-34.03125,-27.093751907348633
1788093368308455000,12.317454833984375,-5.231250286102295,-35.90625,-25.968751907348633
1788093368318454800,12.327454833984374,-7.875000476837158,-36.07500076293945,-27.150001525878906
1788093368328455000,12.337454833984374,-4.443750381469727,-34.91250228881836,-27.281251907348633
1788093368338454800,12.347454833984376,-7.706250190734863,-35.19375228881836,-26.212501525878906
1788093368358454800,12.367454833984375,-6.806250095367432,-36.35625076293945,-25.818750381469727
1788093368368455000,12.377454833984375,-5.081250190734863,-36.056251525878906,-25.51875114440918
1788093368378454800,12.387454833984375,-4.012500286102295,-36.35625076293945,-27.506250381469727
1788093368388455000,12.397454833984375,-4.631250381469727,-36.35625076293945,-26.437501907348633
1788093368398454800,12.407454833984374,-4.443750381469727,-34.89375305175781,-26.981250762939453
1788093368408455000,12.417454833984374,-5.53125,-35.19375228881836,-27.281251907348633
1788093368418454800,12.427454833984376,-6.018750190734863,-36.07500076293945,-27.918750762939453
1788093368428455000,12.437454833984376,-5.081250190734863,-36.056251525878906,-26.118751525878906
1788093368438454800,12.447454833984375,-5.212500095367432,-34.89375305175781,-25.912500381469727
1788093368448455000,12.457454833984375,-4.275000095367432,-34.76250076293945,-27.431251525878906
1788093368458454800,12.467454833984375,-4.950000286102295,-36.48750305175781,-26.287500381469727
1788093368468455000,12.477454833984375,-3.843750238418579,-36.20625305175781,-26.287500381469727
1788093368478454800,12.487454833984375,-5.231250286102295,-35.92500305175781,-26.718751907348633
1788093368488455000,12.497454833984374,-7.275000095367432,-37.20000076293945,-24.637500762939453
1788093368498454800,12.507454833984376,-4.931250095367432,-36.20625305175781,-25.668750762939453
1788093368508455000,12.517454833984376,-3.3375000953674316,-34.875,-25.181251525878906
1788093368518454800,12.527454833984375,-6.637500286102295,-35.90625,-25.950000762939453
1788093368528455000,12.537454833984375,-5.53125,-35.19375228881836,-26.681251525878906
1788093368548455000,12.557454833984375,-6.787500381469727,-36.056251525878906,-26.400001525878906
1788093368558454800,12.567454833984375,-5.381250381469727,-35.60625076293945,-24.731250762939453
1788093368568455000,12.577454833984374,-3.8062500953674316,-35.15625,-23.83125114440918
1788093368578454800,12.587454833984374,-4.162500381469727,-36.20625305175781,-27.637500762939453
1788093368598454800,12.607454833984375,-4.125,-35.17500305175781,-24.281251907348633
1788093368608455000,12.617454833984375,-5.587500095367432,-37.21875,-26.006250381469727
1788093368618454800,12.627454833984375,-5.512500286102295,-34.462501525878906,-26.193750381469727
1788093368628455000,12.637454833984375,-4.331250190734863,-36.35625076293945,-27.20625114440918
1788093368638454800,12.647454833984375,-5.268750190734863,-37.20000076293945,-24.656251907348633
1788093368648455000,12.657454833984374,-4.893750190734863,-34.462501525878906,-27.262500762939453
1788093368658454800,12.667454833984374,-4.443750381469727,-35.19375228881836,-26.250001907348633
1788093368668455000,12.677454833984376,-4.612500190734863,-36.056251525878906,-25.51875114440918
1788093368678454800,12.687454833984376,-5.212500095367432,-34.89375305175781,-26.231250762939453
1788093368688455000,12.697454833984375,-4.481250286102295,-36.91875076293945,-24.356250762939453
1788093368698454800,12.707454833984375,-5.362500190734863,-35.025001525878906,-25.012500762939453
1788093368708455000,12.717454833984375,-5.418750286102295,-37.35000228881836,-24.506250381469727
1788093368718454800,12.727454833984375,-5.850000381469727,-35.90625,-25.650001525878906
1788093368728455000,12.737454833984375,-2.887500047683716,-35.32500076293945,-26.118751525878906
1788093368738454800,12.747454833984374,-5.53125,-35.17500305175781,-25.181251525878906
1788093368748455000,12.757454833984376,-5.71875,-36.375,-28.23750114440918
1788093368758454800,12.767454833984376,-5.381250381469727,-35.625,-25.500001907348633
1788093368768455000,12.777454833984375,-6.018750190734863,-36.618751525878906,-24.01875114440918
1788093368778454800,12.787454833984375,-4.931250095367432,-36.20625305175781,-27.337501525878906
1788093368788455000,12.797454833984375,-3.2250001430511475,-36.337501525878906,-25.087501525878906
1788093368798454800,12.807454833984375,-3.075000047683716,-36.20625305175781,-26.756250381469727
1788093368818454800,12.827454833984374,-5.850000381469727,-35.47500228881836,-24.881250381469727
1788093368828455000,12.837454833984374,-3.093750238418579,-36.91875076293945,-24.656251907348633
1788093368838454800,12.847454833984376,-3.2250001430511475,-36.337501525878906,-25.537500381469727
1788093368848455000,12.857454833984375,-5.100000381469727,-36.35625076293945,-27.187501907348633
1788093368858454800,12.867454833984375,-3.4125001430511475,-37.78125,-25.293750762939453
1788093368868455000,12.877454833984375,-4.96875,-37.80000305175781,-25.293750762939453
1788093368878454800,12.887454833984375,-6.656250476837158,-36.9375,-26.73750114440918
1788093368888455000,12.897454833984375,-5.100000381469727,-36.63750076293945,-25.537500381469727
1788093368898454800,12.907454833984374,-4.462500095367432,-36.20625305175781,-26.287500381469727
1788093368908455000,12.917454833984374,-5.71875,-36.337501525878906,-25.51875114440918
1788093368918454800,12.927454833984376,-3.2062501907348633,-35.60625076293945,-25.068750381469727
1788093368928455000,12.937454833984376,-3.843750238418579,-35.90625,-25.668750762939453
1788093368938454800,12.947454833984375,-3.2437500953674316,-36.35625076293945,-26.906251907348633
1788093368948455000,12.957454833984375,-5.550000190734863,-35.90625,-25.650001525878906
1788093368958454800,12.967454833984375,-2.71875,-34.875,-24.881250381469727
1788093368968455000,12.977454833984375,-4.462500095367432,-35.90625,-25.668750762939453
1788093368978454800,12.987454833984375,-3.6750001907348633,-35.32500076293945,-26.100000381469727
1788093368988455000,12.997454833984374,-5.268750190734863,-37.21875,-25.70625114440918
1788093368998454800,13.007454833984376,-4.462500095367432,-35.92500305175781,-27.01875114440918
1788093369008455000,13.017454833984376,-5.400000095367432,-36.056251525878906,-26.418750762939453
1788093369018454800,13.027454833984375,-4.893750190734863,-34.89375305175781,-25.631250381469727
1788093369028455000,13.037454833984375,-4.668750286102295,-37.650001525878906,-25.89375114440918
1788093369038454800,13.047454833984375,-5.081250190734863,-36.056251525878906,-26.118751525878906
1788093369048455000,13.057454833984375,-5.53125,-34.89375305175781,-26.681251525878906
1788093369058454800,13.067454833984375,-5.231250286102295,-35.90625,-25.200000762939453
1788093369068455000,13.077454833984374,-5.400000095367432,-36.337501525878906,-25.51875114440918
1788093369078454800,13.087454833984374,-3.6750001907348633,-35.32500076293945,-25.80000114440918
1788093369088455000,13.097454833984376,-4.987500190734863,-38.53125,-26.062501907348633
1788093369098454800,13.107454833984375,-4.987500190734863,-38.53125,-26.062501907348633
1788093369108455000,13.117454833984375,-4.462500095367432,-35.47500228881836,-27.01875114440918
1788093369118454800,13.127454833984375,-5.681250095367432,-35.60625076293945,-25.031251907348633
1788093369128455000,13.137454833984375,-3.356250047683716,-35.47500228881836,-25.968751907348633
1788093369138454800,13.147454833984375,-4.162500381469727,-36.1875,-25.687501907348633
1788093369148455000,13.157454833984374,-6.056250095367432,-37.650001525878906,-25.575000762939453
1788093369158454800,13.167454833984374,-5.081250190734863,-35.625,-25.80000114440918
1788093369168455000,13.177454833984376,-5.081250190734863,-35.625,-25.80000114440918
1788093369178454800,13.187454833984376,-4.462500095367432,-36.20625305175781,-26.287500381469727
1788093369188455000,13.197454833984375,-5.8125,-34.44375228881836,-25.14375114440918
1788093369198454800,13.207454833984375,-5.118750095367432,-37.368751525878906,-26.92500114440918
1788093369208455000,13.217454833984375,-4.443750381469727,-34.89375305175781,-26.681251525878906
1788093369218454800,13.227454833984375,-7.743750095367432,-36.9375,-27.337501525878906
1788093369228455000,13.237454833984375,-4.012500286102295,-36.35625076293945,-26.437501907348633
1788093369238454800,13.247454833984374,-4.3125,-36.056251525878906,-27.187501907348633
1788093369248455000,13.257454833984376,-5.568750381469727,-36.91875076293945,-25.23750114440918
1788093369268455000,13.277454833984375,-2.9625000953674316,-38.08125305175781,-25.162500381469727
1788093369278454800,13.287454833984375,-3.6750001907348633,-36.03750228881836,-23.418750762939453
1788093369288455000,13.297454833984375,-6.018750190734863,-36.35625076293945,-26.118751525878906
1788093369298454800,13.307454833984375,-5.118750095367432,-37.63125228881836,-24.075000762939453
1788093369308455000,13.317454833984375,-4.912500381469727,-35.17500305175781,-24.881250381469727
1788093369318454800,13.327454833984374,-6.318750381469727,-35.92500305175781,-26.700000762939453
1788093369328455000,13.337454833984374,-4.631250381469727,-36.07500076293945,-27.187501907348633
