time,seconds_elapsed,z,y,x
1788093356128454700,0.13745458984375,-57.993751525878906,-60.63750076293945,-46.40625
1788093356138454800,0.147454833984375,-57.525001525878906,-60.22500228881836,-48.67500305175781
1788093356148454700,0.15745458984375,-57.525001525878906,-60.22500228881836,-48.67500305175781
1788093356158454800,0.167454833984375,-56.56875228881836,-59.906253814697266,-46.40625
1788093356168454700,0.17745458984375,-59.55000305175781,-60.78750228881836,-46.556251525878906
1788093356178454800,0.187454833984375,-59.73750305175781,-61.66875076293945,-48.093753814697266
1788093356188454700,0.19745458984375,-59.08125305175781,-60.35625076293945,-48.056251525878906
1788093356198454800,0.207454833984375,-58.14375305175781,-60.20625305175781,-47.90625
1788093356208454700,0.21745458984375,-59.26875305175781,-61.80000305175781,-46.59375
1788093356218454800,0.227454833984375,-58.76250076293945,-59.92500305175781,-48.48750305175781
1788093356228454700,0.23745458984375,-58.20000076293945,-62.83125305175781,-48.01875305175781
1788093356238454800,0.247454833984375,-56.94375228881836,-61.66875076293945,-47.83125305175781
1788093356248454700,0.25745458984375,-58.95000076293945,-61.53750228881836,-49.76250076293945
1788093356258454800,0.267454833984375,-58.181251525878906,-61.51875305175781,-47.66250228881836
1788093356268454700,0.27745458984375,-56.92500305175781,-61.650001525878906,-46.16250228881836
1788093356278454800,0.287454833984375,-57.375003814697266,-60.937503814697266,-47.04375076293945
1788093356288454700,0.29745458984375,-58.181251525878906,-62.08125305175781,-45.5625
1788093356298454800,0.307454833984375,-58.14375305175781,-60.76875305175781,-45.97500228881836
1788093356308454700,0.31745458984375,-56.45625305175781,-61.218753814697266,-47.36250305175781
1788093356318454800,0.327454833984375,-58.781253814697266,-60.937503814697266,-47.47500228881836
1788093356328454700,0.33745458984375,-58.98750305175781,-63.11250305175781,-46.650001525878906
1788093356338454800,0.347454833984375,-58.20000076293945,-62.812503814697266,-45.60000228881836
1788093356348454700,0.35745458984375,-56.775001525878906,-61.500003814697266,-46.91250228881836
1788093356358454800,0.367454833984375,-55.218753814697266,-61.368751525878906,-47.08125305175781
1788093356368454700,0.37745458984375,-58.01250076293945,-61.35000228881836,-46.14375305175781
1788093356378454800,0.387454833984375,-57.86250305175781,-61.500003814697266,-46.29375076293945
1788093356388454700,0.39745458984375,-58.20000076293945,-62.531253814697266,-47.70000076293945
1788093356398454800,0.407454833984375,-59.062503814697266,-59.906253814697266,-46.06875228881836
1788093356408454700,0.41745458984375,-57.13125228881836,-63.13125228881836,-49.38750076293945
1788093356418454800,0.427454833984375,-57.88125228881836,-61.81875228881836,-48.281253814697266
1788093356428454700,0.43745458984375,-58.16250228881836,-60.78750228881836,-47.32500076293945
1788093356438454800,0.447454833984375,-57.843753814697266,-60.78750228881836,-47.625
1788093356448454700,0.45745458984375,-55.53750228881836,-60.95625305175781,-49.931251525878906
1788093356458454800,0.467454833984375,-56.45625305175781,-61.500003814697266,-46.91250228881836
1788093356468454700,0.47745458984375,-56.493751525878906,-62.531253814697266,-48.01875305175781
1788093356478454800,0.487454833984375,-58.76250076293945,-59.92500305175781,-49.10625076293945
1788093356488454700,0.49745458984375,-58.125003814697266,-59.493751525878906,-49.23750305175781
1788093356498454800,0.507454833984375,-58.931251525878906,-60.78750228881836,-46.556251525878906
1788093356508454700,0.51745458984375,-57.67500305175781,-60.35625076293945,-48.525001525878906
1788093356518454800,0.527454833984375,-57.11250305175781,-62.55000305175781,-48.76875305175781
1788093356528454700,0.53745458984375,-57.712501525878906,-61.368751525878906,-47.51250076293945
1788093356538454800,0.547454833984375,-58.16250228881836,-61.218753814697266,-47.34375
1788093356548454700,0.55745458984375,-58.33125305175781,-61.66875076293945,-47.8125
1788093356558454800,0.567454833984375,-57.67500305175781,-60.337501525878906,-46.40625
1788093356568454700,0.57745458984375,-58.650001525878906,-61.51875305175781,-48.712501525878906
1788093356578454800,0.587454833984375,-59.10000228881836,-61.368751525878906,-47.04375076293945
1788093356588454700,0.59745458984375,-55.06875228881836,-61.51875305175781,-47.38125228881836
1788093356598454800,0.607454833984375,-56.64375305175781,-62.400001525878906,-48.91875076293945
1788093356608454700,0.61745458984375,-56.906253814697266,-60.63750076293945,-47.47500228881836
1788093356618454800,0.627454833984375,-57.07500076293945,-60.806251525878906,-49.29375076293945
1788093356628454700,0.63745458984375,-55.66875076293945,-60.48750305175781,-47.34375
1788093356638454800,0.647454833984375,-57.843753814697266,-61.218753814697266,-46.59375
1788093356648454700,0.65745458984375,-56.437503814697266,-60.22500228881836,-48.97500228881836
1788093356658454800,0.667454833984375,-57.63750076293945,-58.61250305175781,-47.400001525878906
1788093356668454700,0.67745458984375,-58.35000228881836,-61.968753814697266,-48.58125305175781
1788093356678454800,0.687454833984375,-57.093753814697266,-61.51875305175781,-48.73125076293945
1788093356688454700,0.69745458984375,-57.843753814697266,-60.78750228881836,-46.275001525878906
1788093356698454800,0.707454833984375,-56.13750076293945,-60.50625228881836,-47.94375228881836
1788093356708454700,0.71745458984375,-57.69375228881836,-60.937503814697266,-48.093753814697266
1788093356718454800,0.727454833984375,-57.35625076293945,-60.337501525878906,-46.10625076293945
1788093356728454700,0.73745458984375,-57.375003814697266,-60.63750076293945,-47.025001525878906
1788093356738454800,0.747454833984375,-56.94375228881836,-61.66875076293945,-48.13125228881836
1788093356748454700,0.75745458984375,-56.156253814697266,-61.218753814697266,-47.962501525878906
1788093356758454800,0.767454833984375,-59.118751525878906,-61.95000076293945,-47.8125
1788093356768454700,0.77745458984375,-59.23125076293945,-60.22500228881836,-48.20625305175781
1788093356778454800,0.787454833984375,-58.29375076293945,-59.92500305175781,-48.806251525878906
1788093356788454700,0.79745458984375,-57.656253814697266,-59.343753814697266,-47.41875076293945
1788093356798454800,0.807454833984375,-57.07500076293945,-60.50625228881836,-48.69375228881836
1788093356808454700,0.81745458984375,-56.775001525878906,-60.806251525878906,-49.312503814697266
1788093356818454800,0.827454833984375,-57.07500076293945,-61.23750305175781,-48.26250076293945
1788093356828454700,0.83745458984375,-57.712501525878906,-60.95625305175781,-50.51250076293945
1788093356838454800,0.847454833984375,-57.95625305175781,-59.04375076293945,-46.95000076293945
1788093356848454700,0.85745458984375,-56.64375305175781,-61.95000076293945,-48.150001525878906
1788093356858454800,0.867454833984375,-57.093753814697266,-61.80000305175781,-47.681251525878906
1788093356868454700,0.87745458984375,-59.23125076293945,-60.50625228881836,-47.90625
1788093356878454800,0.887454833984375,-57.67500305175781,-59.92500305175781,-48.50625228881836
1788093356888454700,0.89745458984375,-58.63125228881836,-61.51875305175781,-47.962501525878906
1788093356898454800,0.907454833984375,-56.437503814697266,-60.78750228881836,-46.89375305175781
1788093356908454700,0.91745458984375,-59.26875305175781,-61.81875228881836,-47.66250228881836
1788093356918454800,0.927454833984375,-57.48750305175781,-59.19375228881836,-47.56875228881836
1788093356928454700,0.93745458984375,-58.031253814697266,-62.38125228881836,-47.55000305175781
1788093356938454800,0.947454833984375,-57.712501525878906,-61.38750076293945,-49.462501525878906
1788093356948454700,0.95745458984375,-57.39375305175781,-61.38750076293945,-49.48125076293945
1788093356958454800,0.967454833984375,-57.093753814697266,-61.51875305175781,-48.73125076293945
1788093356968454700,0.97745458984375,-57.73125076293945,-62.400001525878906,-49.20000076293945
1788093356978454800,0.987454833984375,-59.718753814697266,-60.95625305175781,-49.125003814697266
1788093356988454700,0.99745458984375,-57.78750228881836,-58.76250076293945,-47.55000305175781
1788093356998454800,1.007454833984375,-57.86250305175781,-61.23750305175781,-49.01250076293945
1788093357008454700,1.01745458984375,-57.67500305175781,-59.94375228881836,-49.406253814697266
1788093357018454800,1.027454833984375,-57.82500076293945,-59.79375076293945,-50.306251525878906
1788093357028454700,1.03745458984375,-57.67500305175781,-59.92500305175781,-48.50625228881836
1788093357038454800,1.047454833984375,-58.29375076293945,-59.92500305175781,-48.50625228881836
1788093357048454700,1.05745458984375,-59.10000228881836,-61.38750076293945,-49.462501525878906
1788093357058454800,1.067454833984375,-58.01250076293945,-60.937503814697266,-48.843753814697266
1788093357068454700,1.07745458984375,-57.88125228881836,-61.81875228881836,-48.73125076293945
1788093357078454800,1.087454833984375,-58.275001525878906,-59.343753814697266,-49.087501525878906
1788093357088454700,1.09745458984375,-58.61250305175781,-60.22500228881836,-48.20625305175781
1788093357098454800,1.107454833984375,-56.812503814697266,-62.55000305175781,-49.06875228881836
1788093357108454700,1.11745458984375,-58.01250076293945,-61.38750076293945,-49.16250228881836
1788093357118454800,1.127454833984375,-58.16250228881836,-60.50625228881836,-48.97500228881836
1788093357128454700,1.13745458984375,-59.73750305175781,-61.968753814697266,-48.11250305175781
1788093357138454800,1.147454833984375,-57.056251525878906,-60.20625305175781,-47.625
1788093357148454700,1.15745458984375,-56.92500305175781,-60.937503814697266,-48.562503814697266
1788093357158454800,1.167454833984375,-56.13750076293945,-60.806251525878906,-49.312503814697266
1788093357168454700,1.17745458984375,-56.60625076293945,-60.656253814697266,-49.91250228881836
1788093357178454800,1.187454833984375,-56.625003814697266,-61.650001525878906,-47.53125
1788093357188454700,1.19745458984375,-56.437503814697266,-60.50625228881836,-48.69375228881836
1788093357198454800,1.207454833984375,-58.275001525878906,-59.062503814697266,-49.81875228881836
1788093357208454700,1.21745458984375,-56.92500305175781,-61.368751525878906,-48.11250305175781
1788093357218454800,1.227454833984375,-57.375003814697266,-60.91875076293945,-46.743751525878906
1788093357228454700,1.23745458984375,-57.712501525878906,-61.368751525878906,-47.8125
1788093357238454800,1.247454833984375,-57.656253814697266,-59.062503814697266,-49.368751525878906
1788093357248454700,1.25745458984375,-57.656253814697266,-59.062503814697266,-49.368751525878906
1788093357258454800,1.267454833984375,-58.743751525878906,-59.062503814697266,-49.06875228881836
1788093357268454700,1.27745458984375,-56.75625228881836,-60.78750228881836,-47.64375305175781
1788093357278454800,1.287454833984375,-56.28750228881836,-60.35625076293945,-47.775001525878906
1788093357288454700,1.29745458984375,-58.931251525878906,-60.50625228881836,-47.60625076293945
1788093357298454800,1.307454833984375,-56.79375076293945,-61.81875228881836,-48.750003814697266
1788093357308454700,1.31745458984375,-57.525001525878906,-60.20625305175781,-47.306251525878906
1788093357318454800,1.327454833984375,-57.35625076293945,-59.92500305175781,-49.10625076293945
1788093357328454700,1.33745458984375,-59.400001525878906,-60.656253814697266,-48.525001525878906
1788093357338454800,1.347454833984375,-57.656253814697266,-59.625003814697266,-48.03750228881836
1788093357348454700,1.35745458984375,-56.73750305175781,-60.48750305175781,-46.275001525878906
1788093357358454800,1.367454833984375,-57.656253814697266,-59.906253814697266,-46.98750305175781
1788093357368454700,1.37745458984375,-57.093753814697266,-61.51875305175781,-47.66250228881836
1788093357378454800,1.387454833984375,-57.88125228881836,-61.81875228881836,-47.98125076293945
1788093357388454700,1.39745458984375,-59.55000305175781,-61.218753814697266,-46.57500076293945
1788093357398454800,1.407454833984375,-57.86250305175781,-61.51875305175781,-48.26250076293945
1788093357408454700,1.41745458984375,-57.86250305175781,-61.218753814697266,-47.64375305175781
1788093357418454800,1.427454833984375,-59.587501525878906,-62.10000228881836,-46.61250305175781
1788093357428454700,1.43745458984375,-57.54375076293945,-60.806251525878906,-48.69375228881836
1788093357438454800,1.447454833984375,-58.05000305175781,-62.962501525878906,-47.56875228881836
1788093357448454700,1.45745458984375,-58.81875228881836,-61.968753814697266,-49.181251525878906
1788093357458454800,1.467454833984375,-57.41250228881836,-62.38125228881836,-47.85000228881836
1788093357468454700,1.47745458984375,-58.33125305175781,-61.368751525878906,-47.04375076293945
1788093357478454800,1.487454833984375,-57.76875305175781,-63.69375228881836,-47.90625
1788093357488454700,1.49745458984375,-58.29375076293945,-60.35625076293945,-48.525001525878906
1788093357498454800,1.507454833984375,-57.562503814697266,-61.81875228881836,-47.98125076293945
1788093357508454700,1.51745458984375,-57.54375076293945,-61.218753814697266,-46.89375305175781
1788093357518454800,1.527454833984375,-57.900001525878906,-62.812503814697266,-46.650001525878906
1788093357528454700,1.53745458984375,-59.23125076293945,-60.78750228881836,-46.556251525878906
1788093357538454800,1.547454833984375,-58.33125305175781,-61.95000076293945,-47.83125305175781
1788093357548454700,1.55745458984375,-58.33125305175781,-61.38750076293945,-48.562503814697266
1788093357558454800,1.567454833984375,-58.931251525878906,-60.78750228881836,-47.92500305175781
1788093357568454700,1.57745458984375,-56.868751525878906,-59.062503814697266,-49.087501525878906
1788093357578454800,1.587454833984375,-58.76250076293945,-60.63750076293945,-47.00625228881836
1788093357588454700,1.59745458984375,-59.10000228881836,-60.937503814697266,-48.525001525878906
1788093357598454800,1.607454833984375,-58.743751525878906,-59.92500305175781,-47.4375
1788093357608454700,1.61745458984375,-57.54375076293945,-61.500003814697266,-46.3125
1788093357618454800,1.627454833984375,-57.35625076293945,-59.625003814697266,-47.4375
1788093357628454700,1.63745458984375,-56.60625076293945,-60.656253814697266,-48.093753814697266
1788093357638454800,1.647454833984375,-56.75625228881836,-60.22500228881836,-48.97500228881836
1788093357648454700,1.65745458984375,-57.843753814697266,-60.78750228881836,-48.243751525878906
1788093357658454800,1.667454833984375,-55.95000076293945,-59.04375076293945,-47.73750305175781
1788093357668454700,1.67745458984375,-56.906253814697266,-60.35625076293945,-48.82500076293945
1788093357678454800,1.687454833984375,-58.80000305175781,-61.66875076293945,-48.86250305175781
1788093357688454700,1.69745458984375,-59.55000305175781,-60.78750228881836,-47.92500305175781
1788093357698454800,1.707454833984375,-57.993751525878906,-60.656253814697266,-48.82500076293945
1788093357708454700,1.71745458984375,-55.650001525878906,-59.493751525878906,-48.656253814697266
1788093357718454800,1.727454833984375,-58.14375305175781,-60.20625305175781,-47.90625
1788093357728454700,1.73745458984375,-57.60000228881836,-63.11250305175781,-48.03750228881836
1788093357738454800,1.747454833984375,-57.375003814697266,-60.35625076293945,-47.47500228881836
1788093357748454700,1.75745458984375,-57.39375305175781,-61.368751525878906,-46.743751525878906
1788093357758454800,1.767454833984375,-58.275001525878906,-59.625003814697266,-48.03750228881836
1788093357768454700,1.77745458984375,-57.13125228881836,-62.83125305175781,-48.78750228881836
1788093357778454800,1.787454833984375,-57.39375305175781,-61.368751525878906,-48.11250305175781
1788093357788454700,1.79745458984375,-58.781253814697266,-60.937503814697266,-48.54375076293945
1788093357798454800,1.807454833984375,-57.843753814697266,-60.50625228881836,-48.22500228881836
1788093357808454700,1.81745458984375,-58.63125228881836,-60.525001525878906,-49.72500228881836
1788093357818454800,1.827454833984375,-59.55000305175781,-60.22500228881836,-48.95625305175781
1788093357828454700,1.83745458984375,-57.39375305175781,-60.95625305175781,-49.14375305175781
1788093357838454800,1.847454833984375,-57.375003814697266,-60.63750076293945,-47.025001525878906
1788093357848454700,1.85745458984375,-58.16250228881836,-61.218753814697266,-47.64375305175781
1788093357858454800,1.867454833984375,-58.33125305175781,-61.66875076293945,-48.11250305175781
1788093357868454700,1.87745458984375,-57.056251525878906,-60.50625228881836,-48.22500228881836
1788093357878454800,1.887454833984375,-57.07500076293945,-60.806251525878906,-48.69375228881836
1788093357888454700,1.89745458984375,-58.91250228881836,-60.22500228881836,-48.20625305175781
1788093357898454800,1.907454833984375,-57.806251525878906,-58.76250076293945,-48.60000228881836
1788093357908454700,1.91745458984375,-57.03750228881836,-59.493751525878906,-48.63750076293945
1788093357918454800,1.927454833984375,-56.625003814697266,-61.38750076293945,-49.48125076293945
1788093357928454700,1.93745458984375,-57.39375305175781,-61.66875076293945,-47.83125305175781
1788093357938454800,1.947454833984375,-57.093753814697266,-61.53750228881836,-50.08125305175781
1788093357948454700,1.95745458984375,-57.712501525878906,-61.368751525878906,-47.51250076293945
1788093357958454800,1.967454833984375,-58.76250076293945,-59.92500305175781,-48.48750305175781
1788093357968454700,1.97745458984375,-58.743751525878906,-59.64375305175781,-48.48750305175781
1788093357978454800,1.987454833984375,-56.47500228881836,-61.80000305175781,-47.681251525878906
1788093357988454700,1.99745458984375,-58.312503814697266,-60.937503814697266,-47.47500228881836
1788093357998454800,2.007454833984375,-59.718753814697266,-60.95625305175781,-48.82500076293945
1788093358008454700,2.01745458984375,-58.80000305175781,-61.38750076293945,-48.54375076293945
1788093358018454800,2.027454833984375,-55.72500228881836,-62.531253814697266,-48.01875305175781
1788093358028454700,2.03745458984375,-58.181251525878906,-61.53750228881836,-49.312503814697266
1788093358038454800,2.047454833984375,-57.093753814697266,-61.51875305175781,-48.73125076293945
1788093358048454700,2.05745458984375,-58.181251525878906,-61.53750228881836,-49.312503814697266
1788093358058454800,2.067454833984375,-58.181251525878906,-61.51875305175781,-47.962501525878906
1788093358068454700,2.07745458984375,-58.125003814697266,-59.775001525878906,-47.587501525878906
1788093358078454800,2.087454833984375,-57.712501525878906,-61.650001525878906,-47.0625
1788093358088454700,2.09745458984375,-55.968753814697266,-60.35625076293945,-47.47500228881836
1788093358098454800,2.107454833984375,-57.54375076293945,-61.51875305175781,-47.36250305175781
1788093358108454700,2.11745458984375,-58.931251525878906,-60.806251525878906,-48.67500305175781
1788093358118454800,2.127454833984375,-58.63125228881836,-61.218753814697266,-47.64375305175781
1788093358128454700,2.13745458984375,-58.125003814697266,-59.493751525878906,-47.88750076293945
1788093358138454800,2.147454833984375,-57.843753814697266,-61.218753814697266,-46.59375
1788093358148454700,2.15745458984375,-56.32500076293945,-62.38125228881836,-46.5
1788093358158454800,2.167454833984375,-59.55000305175781,-60.78750228881836,-47.306251525878906
1788093358168454700,2.17745458984375,-60.000003814697266,-60.48750305175781,-46.53750228881836
1788093358178454800,2.187454833984375,-58.275001525878906,-59.906253814697266,-46.6875
1788093358188454700,2.19745458984375,-59.56875228881836,-61.80000305175781,-46.29375076293945
1788093358198454800,2.207454833984375,-57.712501525878906,-61.38750076293945,-49.462501525878906
1788093358208454700,2.21745458984375,-58.33125305175781,-61.95000076293945,-47.53125
1788093358218454800,2.227454833984375,-58.33125305175781,-61.95000076293945,-47.53125
1788093358228454700,2.23745458984375,-58.181251525878906,-61.80000305175781,-47.36250305175781
1788093358238454800,2.247454833984375,-57.431251525878906,-62.962501525878906,-47.118751525878906
1788093358248454700,2.25745458984375,-58.35000228881836,-61.968753814697266,-48.58125305175781
1788093358258454800,2.267454833984375,-57.41250228881836,-62.38125228881836,-47.10000228881836
1788093358268454700,2.27745458984375,-58.95000076293945,-61.80000305175781,-47.36250305175781
1788093358278454800,2.287454833984375,-59.10000228881836,-61.650001525878906,-46.14375305175781
1788093358288454700,2.29745458984375,-58.63125228881836,-61.218753814697266,-45.97500228881836
1788093358298454800,2.307454833984375,-56.92500305175781,-60.937503814697266,-47.04375076293945
1788093358308454700,2.31745458984375,-58.95000076293945,-61.80000305175781,-46.91250228881836
1788093358318454800,2.327454833984375,-58.95000076293945,-61.80000305175781,-46.91250228881836
1788093358328454700,2.33745458984375,-58.931251525878906,-60.78750228881836,-46.556251525878906
1788093358338454800,2.347454833984375,-58.33125305175781,-61.650001525878906,-46.14375305175781
1788093358348454700,2.35745458984375,-58.29375076293945,-59.906253814697266,-46.98750305175781
1788093358358454800,2.367454833984375,-58.650001525878906,-62.10000228881836,-47.681251525878906
1788093358368454700,2.37745458984375,-57.525001525878906,-60.78750228881836,-46.875
1788093358378454800,2.387454833984375,-57.07500076293945,-60.78750228881836,-47.94375228881836
1788093358388454700,2.39745458984375,-60.95625305175781,-61.80000305175781,-45.97500228881836
1788093358398454800,2.407454833984375,-56.92500305175781,-61.368751525878906,-47.0625
1788093358408454700,2.41745458984375,-57.58125305175781,-62.531253814697266,-47.70000076293945
1788093358418454800,2.427454833984375,-59.10000228881836,-61.38750076293945,-48.843753814697266
1788093358428454700,2.43745458984375,-58.218753814697266,-63.11250305175781,-48.31875228881836
1788093358438454800,2.447454833984375,-58.05000305175781,-62.962501525878906,-47.118751525878906
1788093358448454700,2.45745458984375,-58.33125305175781,-61.650001525878906,-47.0625
1788093358458454800,2.467454833984375,-57.093753814697266,-61.51875305175781,-48.281253814697266
1788093358468454700,2.47745458984375,-58.33125305175781,-61.650001525878906,-46.76250076293945
1788093358478454800,2.487454833984375,-58.05000305175781,-62.66250228881836,-46.80000305175781
1788093358488454700,2.49745458984375,-57.69375228881836,-60.63750076293945,-47.47500228881836
1788093358498454800,2.507454833984375,-57.562503814697266,-61.80000305175781,-47.681251525878906
1788093358508454700,2.51745458984375,-56.47500228881836,-62.10000228881836,-48
1788093358518454800,2.527454833984375,-58.781253814697266,-60.937503814697266,-46.72500228881836
1788093358528454700,2.53745458984375,-57.39375305175781,-60.937503814697266,-48.54375076293945
1788093358538454800,2.547454833984375,-60.468753814697266,-60.656253814697266,-47.45625305175781
1788093358548454700,2.55745458984375,-57.54375076293945,-61.51875305175781,-46.91250228881836
1788093358558454800,2.567454833984375,-57.41250228881836,-61.66875076293945,-49.48125076293945
1788093358568454700,2.57745458984375,-58.33125305175781,-61.38750076293945,-48.562503814697266
1788093358578454800,2.587454833984375,-56.75625228881836,-60.50625228881836,-48.993751525878906
1788093358588454700,2.59745458984375,-59.08125305175781,-60.63750076293945,-47.00625228881836
1788093358598454800,2.607454833984375,-57.41250228881836,-61.66875076293945,-48.13125228881836
1788093358608454700,2.61745458984375,-58.63125228881836,-61.218753814697266,-47.34375
1788093358618454800,2.627454833984375,-57.82500076293945,-60.48750305175781,-46.25625228881836
1788093358628454700,2.63745458984375,-59.10000228881836,-61.650001525878906,-45.39375305175781
1788093358638454800,2.647454833984375,-57.69375228881836,-60.63750076293945,-47.47500228881836
1788093358648454700,2.65745458984375,-58.63125228881836,-61.218753814697266,-46.89375305175781
1788093358658454800,2.667454833984375,-57.993751525878906,-60.35625076293945,-47.45625305175781
1788093358668454700,2.67745458984375,-58.01250076293945,-61.368751525878906,-48.11250305175781
1788093358678454800,2.687454833984375,-58.931251525878906,-61.218753814697266,-46.57500076293945
1788093358688454700,2.69745458984375,-58.33125305175781,-61.66875076293945,-48.11250305175781
1788093358698454800,2.707454833984375,-58.931251525878906,-61.218753814697266,-46.875
1788093358708454700,2.71745458984375,-59.56875228881836,-61.23750305175781,-47.625
1788093358718454800,2.727454833984375,-59.400001525878906,-60.656253814697266,-48.525001525878906
1788093358728454700,2.73745458984375,-59.41875076293945,-60.97500228881836,-51.243751525878906
1788093358738454800,2.747454833984375,-58.61250305175781,-60.50625228881836,-48.22500228881836
1788093358748454700,2.75745458984375,-61.218753814697266,-59.36250305175781,-49.05000305175781
1788093358758454800,2.767454833984375,-59.437503814697266,-62.400001525878906,-48.13125228881836
1788093358768454700,2.77745458984375,-57.54375076293945,-61.23750305175781,-47.962501525878906
1788093358778454800,2.787454833984375,-57.562503814697266,-61.81875228881836,-48.281253814697266
1788093358788454700,2.79745458984375,-58.29375076293945,-60.35625076293945,-47.75625228881836
1788093358798454800,2.807454833984375,-58.61250305175781,-60.50625228881836,-48.67500305175781
1788093358808454700,2.81745458984375,-58.80000305175781,-61.66875076293945,-48.86250305175781
1788093358818454800,2.827454833984375,-59.118751525878906,-61.95000076293945,-47.8125
1788093358828454700,2.83745458984375,-56.88750076293945,-59.64375305175781,-49.406253814697266
1788093358838454800,2.847454833984375,-58.968753814697266,-62.10000228881836,-48.281253814697266
1788093358848454700,2.85745458984375,-59.08125305175781,-60.35625076293945,-48.50625228881836
1788093358858454800,2.867454833984375,-58.80000305175781,-61.650001525878906,-46.44375228881836
1788093358868454700,2.87745458984375,-58.650001525878906,-61.51875305175781,-48.712501525878906
1788093358878454800,2.887454833984375,-59.26875305175781,-61.80000305175781,-47.36250305175781
1788093358888454700,2.89745458984375,-58.76250076293945,-60.375003814697266,-49.125003814697266
1788093358898454800,2.907454833984375,-58.16250228881836,-61.23750305175781,-48.712501525878906
1788093358908454700,2.91745458984375,-59.26875305175781,-61.25625228881836,-49.743751525878906
1788093358918454800,2.927454833984375,-60.656253814697266,-61.25625228881836,-51.39375305175781
1788093358928454700,2.93745458984375,-58.968753814697266,-62.118751525878906,-49.33125305175781
1788093358938454800,2.947454833984375,-57.712501525878906,-61.368751525878906,-48.11250305175781
1788093358948454700,2.95745458984375,-59.13750076293945,-62.681251525878906,-47.55000305175781
1788093358958454800,2.967454833984375,-59.28750228881836,-62.118751525878906,-49.031253814697266
1788093358968454700,2.97745458984375,-57.69375228881836,-60.63750076293945,-47.775001525878906
1788093358978454800,2.987454833984375,-57.375003814697266,-60.35625076293945,-48.525001525878906
1788093358988454700,2.99745458984375,-58.931251525878906,-61.218753814697266,-45.97500228881836
1788093358998454800,3.007454833984375,-58.312503814697266,-60.656253814697266,-48.82500076293945
1788093359008454700,3.01745458984375,-60.056251525878906,-62.812503814697266,-46.63125228881836
1788093359018454800,3.027454833984375,-60.78750228881836,-59.94375228881836,-49.837501525878906
1788093359028454700,3.03745458984375,-57.86250305175781,-61.23750305175781,-48.712501525878906
1788093359038454800,3.047454833984375,-58.91250228881836,-60.22500228881836,-48.95625305175781
1788093359048454700,3.05745458984375,-60.01875305175781,-60.806251525878906,-49.72500228881836
1788093359058454800,3.067454833984375,-59.08125305175781,-60.375003814697266,-50.17500305175781
1788093359068454700,3.07745458984375,-59.55000305175781,-60.525001525878906,-49.72500228881836
1788093359078454800,3.087454833984375,-59.08125305175781,-60.656253814697266,-48.82500076293945
1788093359088454700,3.09745458984375,-60.50625228881836,-61.38750076293945,-49.14375305175781
1788093359098454800,3.107454833984375,-57.69375228881836,-60.937503814697266,-47.79375076293945
1788093359108454700,3.11745458984375,-59.400001525878906,-60.937503814697266,-47.47500228881836
1788093359118454800,3.127454833984375,-59.062503814697266,-59.92500305175781,-48.48750305175781
1788093359128454700,3.13745458984375,-58.61250305175781,-60.50625228881836,-48.97500228881836
1788093359138454800,3.147454833984375,-56.906253814697266,-60.91875076293945,-46.44375228881836
1788093359148454700,3.15745458984375,-59.306251525878906,-63.562503814697266,-48.78750228881836
1788093359158454800,3.167454833984375,-58.63125228881836,-61.218753814697266,-45.97500228881836
1788093359168454700,3.17745458984375,-60.468753814697266,-60.656253814697266,-47.75625228881836
1788093359178454800,3.187454833984375,-57.50625228881836,-59.75625228881836,-46.23750305175781
1788093359188454700,3.19745458984375,-58.650001525878906,-62.10000228881836,-47.38125228881836
1788093359198454800,3.207454833984375,-58.650001525878906,-61.80000305175781,-46.61250305175781
1788093359208454700,3.21745458984375,-59.73750305175781,-61.38750076293945,-49.89375305175781
1788093359218454800,3.227454833984375,-59.56875228881836,-61.51875305175781,-48.243751525878906
1788093359228454700,3.23745458984375,-59.23125076293945,-60.78750228881836,-47.306251525878906
1788093359238454800,3.247454833984375,-59.55000305175781,-60.806251525878906,-48.22500228881836
1788093359248454700,3.25745458984375,-57.82500076293945,-60.48750305175781,-46.25625228881836
1788093359258454800,3.267454833984375,-59.400001525878906,-60.375003814697266,-49.10625076293945
1788093359268454700,3.27745458984375,-56.92500305175781,-61.368751525878906,-48.11250305175781
1788093359278454800,3.287454833984375,-57.50625228881836,-59.775001525878906,-48.20625305175781
1788093359288454700,3.29745458984375,-58.01250076293945,-61.368751525878906,-48.11250305175781
1788093359298454800,3.307454833984375,-59.38125228881836,-59.92500305175781,-48.48750305175781
1788093359308454700,3.31745458984375,-58.16250228881836,-60.525001525878906,-49.72500228881836
1788093359318454800,3.327454833984375,-58.593753814697266,-59.212501525878906,-49.968753814697266
1788093359328454700,3.33745458984375,-60.187503814697266,-60.95625305175781,-48.525001525878906
1788093359338454800,3.347454833984375,-59.437503814697266,-61.968753814697266,-49.931251525878906
1788093359348454700,3.35745458984375,-58.33125305175781,-61.66875076293945,-47.8125
1788093359358454800,3.367454833984375,-57.97500228881836,-59.64375305175781,-48.78750228881836
1788093359368454700,3.37745458984375,-58.781253814697266,-60.656253814697266,-47.775001525878906
1788093359378454800,3.387454833984375,-58.33125305175781,-61.66875076293945,-48.562503814697266
1788093359388454700,3.39745458984375,-58.33125305175781,-61.66875076293945,-48.562503814697266
1788093359398454800,3.407454833984375,-58.031253814697266,-61.66875076293945,-47.8125
1788093359408454700,3.41745458984375,-58.16250228881836,-60.806251525878906,-48.993751525878906
1788093359418454800,3.427454833984375,-59.98125076293945,-59.19375228881836,-47.55000305175781
1788093359428454700,3.43745458984375,-57.86250305175781,-61.23750305175781,-48.26250076293945
1788093359438454800,3.447454833984375,-56.94375228881836,-61.66875076293945,-48.88125228881836
1788093359448454700,3.45745458984375,-59.681251525878906,-59.625003814697266,-46.650001525878906
1788093359458454800,3.467454833984375,-59.062503814697266,-59.625003814697266,-47.71875
1788093359468454700,3.47745458984375,-60.30000305175781,-59.775001525878906,-48.16875076293945
1788093359478454800,3.487454833984375,-58.61250305175781,-60.78750228881836,-47.32500076293945
1788093359488454700,3.49745458984375,-58.33125305175781,-61.368751525878906,-48.11250305175781
1788093359498454800,3.507454833984375,-58.81875228881836,-61.968753814697266,-50.23125076293945
1788093359508454700,3.51745458984375,-57.69375228881836,-60.937503814697266,-48.093753814697266
1788093359518454800,3.527454833984375,-57.95625305175781,-59.343753814697266,-48.01875305175781
1788093359528454700,3.53745458984375,-57.375003814697266,-60.656253814697266,-48.07500076293945
1788093359538454800,3.547454833984375,-59.587501525878906,-61.81875228881836,-49.312503814697266
1788093359548454700,3.55745458984375,-58.76250076293945,-59.92500305175781,-49.10625076293945
1788093359558454800,3.567454833984375,-57.093753814697266,-61.51875305175781,-47.66250228881836
1788093359568454700,3.57745458984375,-58.14375305175781,-60.50625228881836,-47.306251525878906
1788093359578454800,3.587454833984375,-59.56875228881836,-61.51875305175781,-47.64375305175781
1788093359588454700,3.59745458984375,-59.75625228881836,-62.70000076293945,-49.500003814697266
1788093359598454800,3.607454833984375,-59.70000076293945,-60.35625076293945,-47.4375
1788093359608454700,3.61745458984375,-59.587501525878906,-62.531253814697266,-47.681251525878906
1788093359618454800,3.627454833984375,-59.56875228881836,-61.23750305175781,-49.29375076293945
1788093359628454700,3.63745458984375,-57.525001525878906,-60.20625305175781,-47.306251525878906
1788093359638454800,3.647454833984375,-57.69375228881836,-60.656253814697266,-48.843753814697266
1788093359648454700,3.65745458984375,-57.50625228881836,-59.775001525878906,-47.28750228881836
1788093359658454800,3.667454833984375,-56.306251525878906,-61.38750076293945,-48.88125228881836
1788093359668454700,3.67745458984375,-56.73750305175781,-60.20625305175781,-47.92500305175781
1788093359678454800,3.687454833984375,-58.781253814697266,-61.368751525878906,-46.743751525878906
1788093359688454700,3.69745458984375,-55.51875305175781,-59.94375228881836,-50.94375228881836
1788093359698454800,3.707454833984375,-57.54375076293945,-60.806251525878906,-48.993751525878906
1788093359708454700,3.71745458984375,-59.212501525878906,-59.212501525878906,-49.218753814697266
1788093359718454800,3.727454833984375,-59.55000305175781,-60.806251525878906,-48.22500228881836
1788093359728454700,3.73745458984375,-59.56875228881836,-60.806251525878906,-49.72500228881836
1788093359738454800,3.747454833984375,-59.38125228881836,-59.64375305175781,-49.38750076293945
1788093359748454700,3.75745458984375,-59.250003814697266,-60.806251525878906,-49.275001525878906
1788093359758454800,3.767454833984375,-59.23125076293945,-59.79375076293945,-49.687503814697266
1788093359768454700,3.77745458984375,-61.23750305175781,-59.94375228881836,-49.368751525878906
1788093359778454800,3.787454833984375,-60.03750228881836,-61.53750228881836,-48.993751525878906
1788093359788454700,3.79745458984375,-58.931251525878906,-60.525001525878906,-50.025001525878906
1788093359798454800,3.807454833984375,-60.31875228881836,-60.806251525878906,-47.90625
1788093359808454700,3.81745458984375,-58.312503814697266,-60.656253814697266,-48.525001525878906
1788093359818454800,3.827454833984375,-59.55000305175781,-60.806251525878906,-49.275001525878906
1788093359828454700,3.83745458984375,-58.80000305175781,-61.38750076293945,-48.54375076293945
1788093359838454800,3.847454833984375,-58.931251525878906,-60.806251525878906,-48.22500228881836
1788093359848454700,3.85745458984375,-59.55000305175781,-60.22500228881836,-49.70625305175781
1788093359858454800,3.867454833984375,-59.10000228881836,-60.95625305175781,-49.44375228881836
1788093359868454700,3.87745458984375,-59.718753814697266,-61.38750076293945,-48.843753814697266
1788093359878454800,3.887454833984375,-58.781253814697266,-60.937503814697266,-48.54375076293945
1788093359888454700,3.89745458984375,-61.38750076293945,-59.775001525878906,-47.25
1788093359898454800,3.907454833984375,-60.45000076293945,-59.343753814697266,-47.70000076293945
1788093359908454700,3.91745458984375,-59.26875305175781,-61.837501525878906,-49.781253814697266
1788093359918454800,3.927454833984375,-59.98125076293945,-59.775001525878906,-47.56875228881836
1788093359928454700,3.93745458984375,-58.14375305175781,-60.20625305175781,-47.306251525878906
1788093359938454800,3.947454833984375,-59.025001525878906,-58.61250305175781,-47.681251525878906
1788093359948454700,3.95745458984375,-60.50625228881836,-61.95000076293945,-47.493751525878906
1788093359958454800,3.967454833984375,-59.38125228881836,-59.94375228881836,-49.087501525878906
1788093359968454700,3.97745458984375,-60.97500228881836,-61.53750228881836,-48.993751525878906
1788093359978454800,3.987454833984375,-58.89375305175781,-59.493751525878906,-47.56875228881836
1788093359988454700,3.99745458984375,-59.23125076293945,-60.22500228881836,-50.00625228881836
1788093359998454800,4.007454833984375,-59.718753814697266,-60.95625305175781,-48.82500076293945
1788093360008454700,4.01745458984375,-60.843753814697266,-62.70000076293945,-49.181251525878906
1788093360018454800,4.027454833984375,-59.41875076293945,-61.38750076293945,-49.91250228881836
1788093360028454700,4.03745458984375,-62.19375228881836,-60.97500228881836,-50.45625305175781
1788093360038454800,4.047454833984375,-60.63750076293945,-60.806251525878906,-48.95625305175781
1788093360048454700,4.05745458984375,-61.25625228881836,-60.656253814697266,-47.73750305175781
1788093360058454800,4.067454833984375,-60.375003814697266,-62.118751525878906,-49.312503814697266
1788093360068454700,4.07745458984375,-60.806251525878906,-60.67500305175781,-50.156253814697266
1788093360078454800,4.087454833984375,-60.01875305175781,-61.23750305175781,-47.92500305175781
1788093360088454700,4.09745458984375,-58.031253814697266,-61.95000076293945,-48.13125228881836
1788093360098454800,4.107454833984375,-60.618751525878906,-60.22500228881836,-48.187503814697266
1788093360108454700,4.11745458984375,-58.01250076293945,-60.937503814697266,-47.79375076293945
1788093360118454800,4.127454833984375,-58.81875228881836,-62.400001525878906,-48.60000228881836
1788093360128455000,4.137454833984375,-57.843753814697266,-60.50625228881836,-48.67500305175781
1788093360138454800,4.147454833984375,-58.33125305175781,-61.38750076293945,-50.212501525878906
1788093360148455000,4.157454833984375,-60.50625228881836,-62.38125228881836,-45.712501525878906
1788093360158454800,4.167454833984375,-58.81875228881836,-62.681251525878906,-48.60000228881836
1788093360168455000,4.177454833984375,-57.712501525878906,-61.368751525878906,-47.51250076293945
1788093360178454800,4.187454833984375,-58.031253814697266,-61.95000076293945,-47.83125305175781
1788093360188455000,4.197454833984375,-57.07500076293945,-60.806251525878906,-49.29375076293945
1788093360198454800,4.207454833984375,-57.39375305175781,-61.66875076293945,-47.51250076293945
1788093360208455000,4.217454833984375,-57.712501525878906,-61.38750076293945,-48.562503814697266
1788093360218454800,4.227454833984375,-57.69375228881836,-60.937503814697266,-48.54375076293945
1788093360228455000,4.237454833984375,-60.35625076293945,-62.10000228881836,-48.26250076293945
1788093360238454800,4.247454833984375,-59.41875076293945,-61.38750076293945,-49.91250228881836
1788093360248455000,4.257454833984375,-60.337501525878906,-60.525001525878906,-50.00625228881836
1788093360258454800,4.267454833984375,-58.76250076293945,-59.92500305175781,-47.73750305175781
1788093360268455000,4.277454833984375,-58.931251525878906,-60.50625228881836,-47.60625076293945
1788093360278454800,4.287454833984375,-58.81875228881836,-62.38125228881836,-47.08125305175781
1788093360288455000,4.297454833984375,-59.718753814697266,-61.38750076293945,-49.14375305175781
1788093360298454800,4.307454833984375,-59.531253814697266,-59.775001525878906,-47.868751525878906
1788093360308455000,4.317454833984375,-59.08125305175781,-60.35625076293945,-47.75625228881836
1788093360318454800,4.327454833984375,-58.76250076293945,-60.63750076293945,-46.70625305175781
1788093360328455000,4.337454833984375,-59.56875228881836,-61.23750305175781,-48.993751525878906
1788093360378454800,4.387454833984375,-58.931251525878906,-60.50625228881836,-48.97500228881836
1788093360388455000,4.397454833984375,-60.76875305175781,-59.92500305175781,-47.71875
1788093360398454800,4.407454833984375,-58.781253814697266,-60.656253814697266,-49.42500305175781
1788093360408455000,4.417454833984375,-59.400001525878906,-60.95625305175781,-49.125003814697266
1788093360418454800,4.427454833984375,-60.13125228881836,-59.343753814697266,-47.400001525878906
1788093360428455000,4.437454833984375,-60.76875305175781,-59.64375305175781,-48.468753814697266
1788093360438454800,4.447454833984375,-60.000003814697266,-60.20625305175781,-47.28750228881836
1788093360448455000,4.457454833984375,-58.95000076293945,-61.23750305175781,-48.993751525878906
1788093360458454800,4.467454833984375,-58.95000076293945,-61.23750305175781,-48.993751525878906
1788093360468455000,4.477454833984375,-60.16875076293945,-60.656253814697266,-48.056251525878906
1788093360478454800,4.487454833984375,-59.70000076293945,-60.375003814697266,-48.806251525878906
1788093360488455000,4.497454833984375,-60.48750305175781,-60.656253814697266,-48.50625228881836
1788093360498454800,4.507454833984375,-58.781253814697266,-60.656253814697266,-49.42500305175781
1788093360508455000,4.517454833984375,-59.36250305175781,-59.625003814697266,-47.71875
1788093360518454800,4.527454833984375,-59.55000305175781,-60.525001525878906,-49.25625228881836
1788093360528455000,4.537454833984375,-60.937503814697266,-60.22500228881836,-48.187503814697266
1788093360538454800,4.547454833984375,-58.593753814697266,-59.75625228881836,-46.21875
1788093360548455000,4.557454833984375,-60.31875228881836,-60.78750228881836,-47.306251525878906
1788093360558454800,4.567454833984375,-60.63750076293945,-60.525001525878906,-48.95625305175781
1788093360568455000,4.577454833984375,-59.250003814697266,-60.82500076293945,-50.64375305175781
1788093360578454800,4.587454833984375,-57.69375228881836,-60.375003814697266,-49.125003814697266
1788093360588455000,4.597454833984375,-60.20625305175781,-61.687503814697266,-50.212501525878906
1788093360598454800,4.607454833984375,-60.187503814697266,-61.38750076293945,-49.14375305175781
1788093360608455000,4.617454833984375,-59.38125228881836,-59.92500305175781,-48.78750228881836
1788093360618454800,4.627454833984375,-60.337501525878906,-60.806251525878906,-48.656253814697266
1788093360628455000,4.637454833984375,-58.33125305175781,-61.66875076293945,-48.86250305175781
1788093360638454800,4.647454833984375,-60.91875076293945,-59.775001525878906,-48.16875076293945
1788093360648455000,4.657454833984375,-60.16875076293945,-59.94375228881836,-50.906253814697266
1788093360658454800,4.667454833984375,-58.76250076293945,-60.35625076293945,-47.45625305175781
1788093360668455000,4.677454833984375,-60.07500076293945,-62.83125305175781,-48.30000305175781
1788093360678454800,4.687454833984375,-59.062503814697266,-59.92500305175781,-48.03750228881836
1788093360688455000,4.697454833984375,-59.73750305175781,-61.66875076293945,-48.562503814697266
1788093360698454800,4.707454833984375,-59.23125076293945,-60.20625305175781,-47.88750076293945
1788093360708455000,4.717454833984375,-59.56875228881836,-61.81875228881836,-47.66250228881836
1788093360718454800,4.727454833984375,-57.656253814697266,-59.36250305175781,-50.13750076293945
1788093360728455000,4.737454833984375,-58.91250228881836,-60.20625305175781,-47.90625
1788093360738454800,4.747454833984375,-58.61250305175781,-60.20625305175781,-47.90625
1788093360748455000,4.757454833984375,-60.13125228881836,-58.650001525878906,-50.400001525878906
1788093360758454800,4.767454833984375,-58.63125228881836,-61.23750305175781,-48.243751525878906
1788093360768455000,4.777454833984375,-60.01875305175781,-60.525001525878906,-49.70625305175781
1788093360778454800,4.787454833984375,-60.937503814697266,-60.243751525878906,-50.28750228881836
1788093360788455000,4.797454833984375,-58.91250228881836,-59.79375076293945,-48.937503814697266
1788093360798454800,4.807454833984375,-60.03750228881836,-61.23750305175781,-49.29375076293945
1788093360808455000,4.817454833984375,-60.35625076293945,-62.10000228881836,-48.26250076293945
1788093360818454800,4.827454833984375,-59.400001525878906,-60.375003814697266,-49.10625076293945
1788093360828455000,4.837454833984375,-60.31875228881836,-60.525001525878906,-48.95625305175781
1788093360838454800,4.847454833984375,-57.69375228881836,-60.375003814697266,-50.493751525878906
1788093360848455000,4.857454833984375,-62.70000076293945,-62.41875076293945,-49.462501525878906
1788093360858454800,4.867454833984375,-58.312503814697266,-60.656253814697266,-49.42500305175781
1788093360868455000,4.877454833984375,-59.718753814697266,-60.937503814697266,-47.775001525878906
1788093360878454800,4.887454833984375,-60.16875076293945,-60.656253814697266,-48.056251525878906
1788093360888455000,4.897454833984375,-60.806251525878906,-61.38750076293945,-49.14375305175781
1788093360898454800,4.907454833984375,-60.03750228881836,-61.23750305175781,-48.993751525878906
1788093360908455000,4.917454833984375,-60.01875305175781,-60.525001525878906,-49.25625228881836
1788093360918454800,4.927454833984375,-60.618751525878906,-60.22500228881836,-48.937503814697266
1788093360928455000,4.937454833984375,-59.250003814697266,-60.806251525878906,-48.67500305175781
1788093360938454800,4.947454833984375,-58.593753814697266,-59.775001525878906,-46.81875228881836
1788093360948455000,4.957454833984375,-60.187503814697266,-61.38750076293945,-49.44375228881836
1788093360958454800,4.967454833984375,-58.29375076293945,-59.92500305175781,-49.10625076293945
1788093360968455000,4.977454833984375,-60.35625076293945,-61.80000305175781,-46.89375305175781
1788093360978454800,4.987454833984375,-60.01875305175781,-61.23750305175781,-47.92500305175781
1788093360988455000,4.997454833984375,-58.76250076293945,-60.35625076293945,-47.45625305175781
1788093360998454800,5.007454833984375,-57.11250305175781,-62.531253814697266,-48.31875228881836
1788093361008455000,5.017454833984375,-60.468753814697266,-59.92500305175781,-48.78750228881836
1788093361018454800,5.027454833984375,-61.25625228881836,-60.67500305175781,-49.85625076293945
1788093361028455000,5.037454833984375,-60.01875305175781,-60.82500076293945,-50.025001525878906
1788093361038454800,5.047454833984375,-59.70000076293945,-60.375003814697266,-49.85625076293945
1788093361048455000,5.057454833984375,-61.556251525878906,-60.375003814697266,-48.78750228881836
1788093361058454800,5.067454833984375,-60.78750228881836,-60.656253814697266,-48.50625228881836
1788093361068455000,5.077454833984375,-62.23125076293945,-62.681251525878906,-47.8125
1788093361078454800,5.087454833984375,-61.275001525878906,-60.95625305175781,-49.10625076293945
1788093361088455000,5.097454833984375,-61.743751525878906,-61.23750305175781,-48.97500228881836
1788093361098454800,5.107454833984375,-59.08125305175781,-60.35625076293945,-48.056251525878906
1788093361108455000,5.117454833984375,-59.118751525878906,-61.406253814697266,-50.962501525878906
1788093361118454800,5.127454833984375,-60.656253814697266,-61.25625228881836,-49.743751525878906
1788093361128455000,5.137454833984375,-58.650001525878906,-61.51875305175781,-48.26250076293945
1788093361138454800,5.147454833984375,-60.97500228881836,-61.25625228881836,-49.72500228881836
1788093361148455000,5.157454833984375,-61.743751525878906,-61.556251525878906,-50.343753814697266
1788093361158454800,5.167454833984375,-60.67500305175781,-62.10000228881836,-47.962501525878906
1788093361168455000,5.177454833984375,-60.656253814697266,-61.81875228881836,-47.94375228881836
1788093361178454800,5.187454833984375,-61.500003814697266,-58.33125305175781,-48.712501525878906
1788093361188455000,5.197454833984375,-59.23125076293945,-60.48750305175781,-46.85625076293945
1788093361198454800,5.207454833984375,-59.38125228881836,-60.35625076293945,-48.50625228881836
1788093361208455000,5.217454833984375,-59.13750076293945,-62.41875076293945,-49.95000076293945
1788093361218454800,5.227454833984375,-59.55000305175781,-60.806251525878906,-48.97500228881836
1788093361228455000,5.237454833984375,-58.650001525878906,-61.81875228881836,-49.33125305175781
1788093361238454800,5.247454833984375,-58.312503814697266,-60.91875076293945,-45.67500305175781
1788093361248455000,5.257454833984375,-59.718753814697266,-60.67500305175781,-50.47500228881836
1788093361258454800,5.267454833984375,-60.937503814697266,-60.243751525878906,-49.98750305175781
1788093361268455000,5.277454833984375,-60.31875228881836,-60.20625305175781,-47.587501525878906
1788093361278454800,5.287454833984375,-61.406253814697266,-60.525001525878906,-48.937503814697266
1788093361288455000,5.297454833984375,-59.10000228881836,-61.38750076293945,-48.843753814697266
1788093361298454800,5.307454833984375,-57.993751525878906,-60.35625076293945,-48.07500076293945
1788093361308455000,5.317454833984375,-59.38125228881836,-60.35625076293945,-47.75625228881836
1788093361318454800,5.327454833984375,-58.16250228881836,-60.78750228881836,-48.22500228881836
1788093361328455000,5.337454833984375,-61.25625228881836,-60.937503814697266,-47.00625228881836
1788093361338454800,5.347454833984375,-59.60625076293945,-63.11250305175781,-48.01875305175781
1788093361348455000,5.357454833984375,-59.55000305175781,-60.78750228881836,-47.306251525878906
1788093361358454800,5.367454833984375,-59.23125076293945,-60.48750305175781,-45.48750305175781
1788093361368455000,5.377454833984375,-58.931251525878906,-60.806251525878906,-48.97500228881836
1788093361378454800,5.387454833984375,-59.23125076293945,-60.22500228881836,-48.656253814697266
1788093361388455000,5.397454833984375,-58.80000305175781,-61.66875076293945,-47.51250076293945
1788093361398454800,5.407454833984375,-59.10000228881836,-61.38750076293945,-48.54375076293945
1788093361408455000,5.417454833984375,-60.187503814697266,-61.66875076293945,-48.093753814697266
1788093361418454800,5.427454833984375,-58.593753814697266,-59.775001525878906,-46.81875228881836
1788093361428455000,5.437454833984375,-60.03750228881836,-61.51875305175781,-47.64375305175781
1788093361438454800,5.447454833984375,-58.031253814697266,-61.968753814697266,-48.58125305175781
1788093361448455000,5.457454833984375,-59.062503814697266,-59.64375305175781,-48.01875305175781
1788093361458454800,5.467454833984375,-58.312503814697266,-60.937503814697266,-47.47500228881836
1788093361468455000,5.477454833984375,-59.062503814697266,-59.92500305175781,-49.087501525878906
1788093361478454800,5.487454833984375,-60.78750228881836,-60.937503814697266,-48.056251525878906
1788093361488455000,5.497454833984375,-58.781253814697266,-60.95625305175781,-48.843753814697266
1788093361498454800,5.507454833984375,-60.20625305175781,-61.95000076293945,-47.8125
1788093361508455000,5.517454833984375,-61.44375228881836,-62.10000228881836,-48.243751525878906
1788093361518454800,5.527454833984375,-59.10000228881836,-60.937503814697266,-48.525001525878906
1788093361528455000,5.537454833984375,-60.07500076293945,-63.11250305175781,-47.400001525878906
1788093361538454800,5.547454833984375,-60.07500076293945,-63.11250305175781,-47.400001525878906
1788093361548455000,5.557454833984375,-58.01250076293945,-61.38750076293945,-49.16250228881836
1788093361558454800,5.567454833984375,-57.843753814697266,-60.50625228881836,-47.32500076293945
1788093361568455000,5.577454833984375,-57.843753814697266,-60.50625228881836,-47.32500076293945
1788093361578454800,5.587454833984375,-58.181251525878906,-61.51875305175781,-48.26250076293945
1788093361588455000,5.597454833984375,-59.26875305175781,-61.81875228881836,-48.26250076293945
1788093361598454800,5.607454833984375,-59.41875076293945,-60.97500228881836,-50.94375228881836
1788093361608455000,5.617454833984375,-59.26875305175781,-61.81875228881836,-47.66250228881836
1788093361618454800,5.627454833984375,-60.656253814697266,-61.23750305175781,-47.92500305175781
1788093361628455000,5.637454833984375,-59.250003814697266,-61.23750305175781,-48.69375228881836
1788093361648455000,5.657454833984375,-57.67500305175781,-59.92500305175781,-48.056251525878906
1788093361658454800,5.667454833984375,-60.30000305175781,-59.79375076293945,-48.91875076293945
1788093361668455000,5.677454833984375,-58.931251525878906,-60.50625228881836,-47.90625
1788093361678454800,5.687454833984375,-58.650001525878906,-61.80000305175781,-47.36250305175781
1788093361698454800,5.707454833984375,-60.30000305175781,-59.493751525878906,-49.218753814697266
1788093361708455000,5.717454833984375,-58.181251525878906,-61.53750228881836,-49.312503814697266
1788093361718454800,5.727454833984375,-58.931251525878906,-60.22500228881836,-50.00625228881836
1788093361728455000,5.737454833984375,-60.656253814697266,-61.23750305175781,-47.92500305175781
1788093361738454800,5.747454833984375,-59.250003814697266,-61.23750305175781,-48.243751525878906
1788093361748455000,5.757454833984375,-59.55000305175781,-61.218753814697266,-46.875
1788093361758454800,5.767454833984375,-58.650001525878906,-61.81875228881836,-49.031253814697266
1788093361768455000,5.777454833984375,-57.54375076293945,-61.23750305175781,-47.962501525878906
1788093361778454800,5.787454833984375,-60.187503814697266,-61.38750076293945,-48.843753814697266
1788093361788455000,5.797454833984375,-58.16250228881836,-60.806251525878906,-48.993751525878906
1788093361798454800,5.807454833984375,-57.60000228881836,-63.11250305175781,-48.03750228881836
1788093361808455000,5.817454833984375,-58.63125228881836,-61.23750305175781,-47.94375228881836
1788093361818454800,5.827454833984375,-60.48750305175781,-60.95625305175781,-48.525001525878906
1788093361828455000,5.837454833984375,-57.843753814697266,-60.78750228881836,-48.243751525878906
1788093361838454800,5.847454833984375,-59.51250076293945,-59.212501525878906,-48.91875076293945
1788093361848455000,5.857454833984375,-59.41875076293945,-61.95000076293945,-47.8125
1788093361858454800,5.867454833984375,-59.55000305175781,-60.78750228881836,-47.60625076293945
1788093361868455000,5.877454833984375,-58.181251525878906,-61.51875305175781,-48.712501525878906
1788093361878454800,5.887454833984375,-60.16875076293945,-60.656253814697266,-48.056251525878906
1788093361888455000,5.897454833984375,-61.25625228881836,-60.656253814697266,-48.50625228881836
1788093361898454800,5.907454833984375,-59.08125305175781,-60.35625076293945,-48.056251525878906
1788093361908455000,5.917454833984375,-60.187503814697266,-61.368751525878906,-47.47500228881836
1788093361918454800,5.927454833984375,-58.931251525878906,-60.22500228881836,-49.70625305175781
1788093361928455000,5.937454833984375,-58.80000305175781,-61.38750076293945,-48.86250305175781
1788093361938454800,5.947454833984375,-57.58125305175781,-62.10000228881836,-48.750003814697266
1788093361948455000,5.957454833984375,-60.468753814697266,-59.94375228881836,-49.38750076293945
1788093361958454800,5.967454833984375,-57.54375076293945,-61.23750305175781,-49.01250076293945
1788093361968455000,5.977454833984375,-59.250003814697266,-61.23750305175781,-49.29375076293945
1788093361978454800,5.987454833984375,-60.50625228881836,-61.66875076293945,-48.843753814697266
1788093361988455000,5.997454833984375,-59.400001525878906,-60.656253814697266,-48.82500076293945
1788093361998454800,6.007454833984375,-59.437503814697266,-62.681251525878906,-47.53125
1788093362008455000,6.017454833984375,-57.375003814697266,-60.656253814697266,-48.07500076293945
1788093362018454800,6.027454833984375,-58.33125305175781,-61.368751525878906,-48.11250305175781
1788093362028455000,6.037454833984375,-58.593753814697266,-59.493751525878906,-48.16875076293945
1788093362038454800,6.047454833984375,-60.000003814697266,-59.79375076293945,-48.618751525878906
1788093362048455000,6.057454833984375,-59.56875228881836,-61.53750228881836,-49.76250076293945
1788093362058454800,6.067454833984375,-58.781253814697266,-60.656253814697266,-48.82500076293945
1788093362068455000,6.077454833984375,-58.931251525878906,-60.525001525878906,-50.025001525878906
1788093362078454800,6.087454833984375,-59.250003814697266,-61.23750305175781,-49.29375076293945
1788093362088455000,6.097454833984375,-57.712501525878906,-61.38750076293945,-50.23125076293945
1788093362098454800,6.107454833984375,-58.14375305175781,-60.20625305175781,-48.20625305175781
1788093362108455000,6.117454833984375,-56.906253814697266,-60.375003814697266,-49.89375305175781
1788093362118454800,6.127454833984375,-59.55000305175781,-60.22500228881836,-48.95625305175781
1788093362128455000,6.137454833984375,-58.181251525878906,-61.81875228881836,-47.962501525878906
1788093362138454800,6.147454833984375,-56.47500228881836,-61.53750228881836,-50.10000228881836
1788093362148455000,6.157454833984375,-58.61250305175781,-60.22500228881836,-49.72500228881836
1788093362158454800,6.167454833984375,-57.843753814697266,-60.50625228881836,-47.92500305175781
1788093362168455000,6.177454833984375,-58.76250076293945,-60.35625076293945,-48.056251525878906
1788093362178454800,6.187454833984375,-60.48750305175781,-60.375003814697266,-49.85625076293945
1788093362188455000,6.197454833984375,-57.993751525878906,-59.94375228881836,-49.406253814697266
1788093362198454800,6.207454833984375,-58.91250228881836,-59.79375076293945,-50.306251525878906
1788093362208455000,6.217454833984375,-58.593753814697266,-59.775001525878906,-48.63750076293945
1788093362218454800,6.227454833984375,-57.82500076293945,-60.20625305175781,-48.20625305175781
1788093362228455000,6.237454833984375,-56.75625228881836,-60.525001525878906,-50.343753814697266
1788093362238454800,6.247454833984375,-58.968753814697266,-61.53750228881836,-50.36250305175781
1788093362248455000,6.257454833984375,-58.95000076293945,-60.82500076293945,-50.343753814697266
1788093362258454800,6.267454833984375,-57.67500305175781,-60.35625076293945,-48.82500076293945
1788093362268455000,6.277454833984375,-58.125003814697266,-59.493751525878906,-49.23750305175781
1788093362278454800,6.287454833984375,-59.681251525878906,-59.36250305175781,-49.81875228881836
1788093362288455000,6.297454833984375,-59.23125076293945,-60.22500228881836,-48.95625305175781
1788093362298454800,6.307454833984375,-57.712501525878906,-61.66875076293945,-49.181251525878906
1788093362308455000,6.317454833984375,-58.781253814697266,-60.95625305175781,-49.14375305175781
1788093362318454800,6.327454833984375,-60.337501525878906,-61.25625228881836,-49.743751525878906
1788093362328455000,6.337454833984375,-58.312503814697266,-60.375003814697266,-50.17500305175781
1788093362338454800,6.347454833984375,-58.61250305175781,-60.22500228881836,-50.025001525878906
1788093362348455000,6.357454833984375,-59.250003814697266,-60.806251525878906,-48.97500228881836
1788093362368455000,6.377454833984375,-58.63125228881836,-61.23750305175781,-48.69375228881836
1788093362378454800,6.387454833984375,-56.47500228881836,-61.23750305175781,-49.33125305175781
1788093362388455000,6.397454833984375,-58.33125305175781,-61.38750076293945,-48.562503814697266
1788093362398454800,6.407454833984375,-59.08125305175781,-60.375003814697266,-49.875003814697266
1788093362408455000,6.417454833984375,-59.10000228881836,-60.67500305175781,-49.875003814697266
1788093362418454800,6.427454833984375,-60.150001525878906,-59.64375305175781,-48.76875305175781
1788093362428455000,6.437454833984375,-59.718753814697266,-61.38750076293945,-49.14375305175781
1788093362438454800,6.447454833984375,-60.150001525878906,-59.64375305175781,-49.81875228881836
1788093362448455000,6.457454833984375,-57.39375305175781,-61.38750076293945,-49.16250228881836
1788093362458454800,6.467454833984375,-60.30000305175781,-59.493751525878906,-48.91875076293945
1788093362468455000,6.477454833984375,-58.781253814697266,-60.656253814697266,-48.07500076293945
1788093362478454800,6.487454833984375,-57.843753814697266,-60.50625228881836,-48.67500305175781
1788093362488455000,6.497454833984375,-58.91250228881836,-60.20625305175781,-47.90625
1788093362498454800,6.507454833984375,-56.56875228881836,-59.062503814697266,-48.78750228881836
1788093362508455000,6.517454833984375,-57.11250305175781,-62.118751525878906,-50.718753814697266
1788093362518454800,6.527454833984375,-58.76250076293945,-60.35625076293945,-48.50625228881836
1788093362528455000,6.537454833984375,-57.41250228881836,-61.38750076293945,-49.931251525878906
1788093362538454800,6.547454833984375,-58.275001525878906,-59.343753814697266,-48.76875305175781
1788093362548455000,6.557454833984375,-58.031253814697266,-61.38750076293945,-49.91250228881836
1788093362558454800,6.567454833984375,-59.26875305175781,-61.25625228881836,-50.36250305175781
1788093362568455000,6.577454833984375,-60.337501525878906,-61.23750305175781,-48.22500228881836
1788093362578454800,6.587454833984375,-58.14375305175781,-59.79375076293945,-49.70625305175781
1788093362588455000,6.597454833984375,-57.056251525878906,-60.22500228881836,-49.275001525878906
1788093362598454800,6.607454833984375,-58.743751525878906,-59.062503814697266,-49.06875228881836
1788093362608455000,6.617454833984375,-59.681251525878906,-59.64375305175781,-49.38750076293945
1788093362618454800,6.627454833984375,-59.681251525878906,-59.64375305175781,-49.38750076293945
1788093362638454800,6.647454833984375,-58.593753814697266,-59.79375076293945,-48.937503814697266
1788093362648455000,6.657454833984375,-59.55000305175781,-60.525001525878906,-50.32500076293945
1788093362658454800,6.667454833984375,-60.01875305175781,-60.54375076293945,-51.375003814697266
1788093362668455000,6.677454833984375,-57.525001525878906,-59.79375076293945,-50.306251525878906
1788093362678454800,6.687454833984375,-58.031253814697266,-61.38750076293945,-49.462501525878906
1788093362688455000,6.697454833984375,-58.125003814697266,-59.51250076293945,-49.98750305175781
1788093362698454800,6.707454833984375,-57.375003814697266,-59.94375228881836,-50.47500228881836
1788093362708455000,6.717454833984375,-58.91250228881836,-59.79375076293945,-50.60625076293945
1788093362718454800,6.727454833984375,-59.437503814697266,-61.968753814697266,-49.48125076293945
1788093362728455000,6.737454833984375,-60.01875305175781,-60.806251525878906,-48.97500228881836
1788093362738454800,6.747454833984375,-59.062503814697266,-59.92500305175781,-49.087501525878906
1788093362748455000,6.757454833984375,-58.931251525878906,-60.806251525878906,-49.275001525878906
1788093362758454800,6.767454833984375,-58.556251525878906,-58.181251525878906,-48.58125305175781
1788093362768455000,6.777454833984375,-57.375003814697266,-59.94375228881836,-50.17500305175781
1788093362778454800,6.787454833984375,-58.931251525878906,-60.525001525878906,-49.72500228881836
1788093362788455000,6.797454833984375,-58.125003814697266,-59.19375228881836,-48.618751525878906
1788093362798454800,6.807454833984375,-58.312503814697266,-60.375003814697266,-48.82500076293945
1788093362818454800,6.827454833984375,-59.38125228881836,-59.38125228881836,-51.78750228881836
1788093362828455000,6.837454833984375,-58.312503814697266,-60.375003814697266,-49.42500305175781
1788093362838454800,6.847454833984375,-58.57500076293945,-58.48125076293945,-49.20000076293945
1788093362848455000,6.857454833984375,-60.01875305175781,-60.50625228881836,-48.20625305175781
1788093362858454800,6.867454833984375,-57.82500076293945,-59.51250076293945,-51.056251525878906
1788093362868455000,6.877454833984375,-58.61250305175781,-59.79375076293945,-50.00625228881836
1788093362878454800,6.887454833984375,-58.743751525878906,-59.64375305175781,-48.78750228881836
1788093362888455000,6.897454833984375,-57.843753814697266,-60.243751525878906,-51.07500076293945
1788093362898454800,6.907454833984375,-58.650001525878906,-61.25625228881836,-51.712501525878906
1788093362908455000,6.917454833984375,-57.993751525878906,-60.375003814697266,-48.82500076293945
1788093362918454800,6.927454833984375,-57.562503814697266,-61.23750305175781,-49.76250076293945
1788093362928455000,6.937454833984375,-57.375003814697266,-60.375003814697266,-49.42500305175781
1788093362938454800,6.947454833984375,-57.88125228881836,-62.118751525878906,-49.05000305175781
1788093362948455000,6.957454833984375,-57.86250305175781,-60.82500076293945,-51.41250228881836
1788093362958454800,6.967454833984375,-58.125003814697266,-59.493751525878906,-49.687503814697266
1788093362968455000,6.977454833984375,-59.38125228881836,-59.64375305175781,-49.38750076293945
1788093362978454800,6.987454833984375,-56.92500305175781,-60.95625305175781,-49.462501525878906
1788093362988455000,6.997454833984375,-59.38125228881836,-59.66250228881836,-50.88750076293945
1788093362998454800,7.007454833984375,-57.97500228881836,-59.36250305175781,-49.837501525878906
1788093363008455000,7.017454833984375,-58.35000228881836,-61.95000076293945,-48.13125228881836
1788093363018454800,7.027454833984375,-57.39375305175781,-60.95625305175781,-49.14375305175781
1788093363028455000,7.037454833984375,-56.41875076293945,-59.493751525878906,-49.70625305175781
1788093363038454800,7.047454833984375,-56.775001525878906,-61.51875305175781,-48.73125076293945
1788093363048455000,7.057454833984375,-56.962501525878906,-62.681251525878906,-47.118751525878906
1788093363058454800,7.067454833984375,-58.98750305175781,-62.55000305175781,-50.10000228881836
1788093363068455000,7.077454833984375,-56.94375228881836,-61.38750076293945,-48.88125228881836
1788093363078454800,7.087454833984375,-57.750003814697266,-62.41875076293945,-50.26875305175781
1788093363088455000,7.097454833984375,-57.35625076293945,-59.92500305175781,-47.45625305175781
1788093363098454800,7.107454833984375,-58.33125305175781,-61.368751525878906,-47.04375076293945
1788093363108455000,7.117454833984375,-57.58125305175781,-62.531253814697266,-47.400001525878906
1788093363118454800,7.127454833984375,-57.58125305175781,-62.118751525878906,-49.35000228881836
1788093363128455000,7.137454833984375,-56.962501525878906,-62.681251525878906,-48.16875076293945
1788093363138454800,7.147454833984375,-56.92500305175781,-60.656253814697266,-48.843753814697266
1788093363148455000,7.157454833984375,-56.79375076293945,-61.81875228881836,-49.05000305175781
1788093363158454800,7.167454833984375,-57.69375228881836,-60.656253814697266,-49.44375228881836
1788093363168455000,7.177454833984375,-56.775001525878906,-61.51875305175781,-48.281253814697266
1788093363178454800,7.187454833984375,-57.093753814697266,-61.23750305175781,-48.712501525878906
1788093363188455000,7.197454833984375,-55.42500305175781,-62.83125305175781,-48.337501525878906
1788093363198454800,7.207454833984375,-58.29375076293945,-60.35625076293945,-48.525001525878906
1788093363208455000,7.217454833984375,-58.05000305175781,-62.400001525878906,-48.150001525878906
1788093363218454800,7.227454833984375,-58.81875228881836,-61.968753814697266,-48.88125228881836
1788093363238454800,7.247454833984375,-54.900001525878906,-60.91875076293945,-47.0625
1788093363248455000,7.257454833984375,-57.58125305175781,-62.55000305175781,-49.06875228881836
1788093363258454800,7.267454833984375,-56.306251525878906,-60.656253814697266,-49.14375305175781
1788093363268455000,7.277454833984375,-55.98750305175781,-60.937503814697266,-47.8125
1788093363278454800,7.287454833984375,-56.437503814697266,-60.50625228881836,-48.69375228881836
1788093363288455000,7.297454833984375,-55.05000305175781,-60.22500228881836,-49.29375076293945
1788093363298454800,7.307454833984375,-55.218753814697266,-60.656253814697266,-48.562503814697266
1788093363308455000,7.317454833984375,-55.98750305175781,-60.656253814697266,-48.54375076293945
1788093363318454800,7.327454833984375,-54.937503814697266,-61.95000076293945,-48.16875076293945
1788093363328455000,7.337454833984375,-56.812503814697266,-62.55000305175781,-49.81875228881836
1788093363338454800,7.347454833984375,-55.70625305175781,-61.81875228881836,-49.81875228881836
1788093363348455000,7.357454833984375,-57.67500305175781,-59.92500305175781,-47.75625228881836
1788093363358454800,7.367454833984375,-56.32500076293945,-61.95000076293945,-47.85000228881836
1788093363368455000,7.377454833984375,-57.73125076293945,-62.681251525878906,-48.16875076293945
1788093363378454800,7.387454833984375,-55.650001525878906,-60.187503814697266,-46.275001525878906
1788093363388455000,7.397454833984375,-56.64375305175781,-62.400001525878906,-48.91875076293945
1788093363398454800,7.407454833984375,-55.70625305175781,-62.08125305175781,-46.650001525878906
1788093363408455000,7.417454833984375,-55.556251525878906,-62.400001525878906,-48.91875076293945
1788093363418454800,7.427454833984375,-54.76875305175781,-61.80000305175781,-47.70000076293945
1788093363428455000,7.437454833984375,-56.98125076293945,-62.98125076293945,-48.63750076293945
1788093363438454800,7.447454833984375,-55.38750076293945,-61.80000305175781,-47.400001525878906
1788093363448455000,7.457454833984375,-56.343753814697266,-62.70000076293945,-49.98750305175781
1788093363458454800,7.467454833984375,-55.743751525878906,-63.562503814697266,-49.125003814697266
1788093363468455000,7.477454833984375,-56.32500076293945,-61.66875076293945,-48.900001525878906
1788093363478454800,7.487454833984375,-56.19375228881836,-62.531253814697266,-48.01875305175781
1788093363488455000,7.497454833984375,-56.493751525878906,-62.55000305175781,-49.06875228881836
1788093363498454800,7.507454833984375,-54.91875076293945,-61.95000076293945,-47.55000305175781
1788093363508455000,7.517454833984375,-56.156253814697266,-61.51875305175781,-49.031253814697266
1788093363518454800,7.527454833984375,-55.06875228881836,-61.218753814697266,-46.91250228881836
1788093363528455000,7.537454833984375,-55.35000228881836,-60.48750305175781,-47.64375305175781
1788093363538454800,7.547454833984375,-55.53750228881836,-61.650001525878906,-47.08125305175781
1788093363548455000,7.557454833984375,-56.812503814697266,-62.83125305175781,-49.38750076293945
1788093363558454800,7.567454833984375,-57.525001525878906,-60.50625228881836,-48.67500305175781
1788093363568455000,7.577454833984375,-54.937503814697266,-62.66250228881836,-45.76875305175781
1788093363578454800,7.587454833984375,-55.98750305175781,-60.937503814697266,-47.8125
1788093363588455000,7.597454833984375,-55.38750076293945,-61.80000305175781,-47.70000076293945
1788093363598454800,7.607454833984375,-57.712501525878906,-61.95000076293945,-47.83125305175781
1788093363608455000,7.617454833984375,-57.78750228881836,-64.3125,-51.69375228881836
1788093363618454800,7.627454833984375,-56.64375305175781,-61.968753814697266,-49.20000076293945
1788093363628455000,7.637454833984375,-55.968753814697266,-59.64375305175781,-49.42500305175781
1788093363638454800,7.647454833984375,-57.41250228881836,-61.38750076293945,-50.531253814697266
1788093363648455000,7.657454833984375,-58.63125228881836,-61.23750305175781,-48.243751525878906
1788093363658454800,7.667454833984375,-56.45625305175781,-60.806251525878906,-49.76250076293945
1788093363668455000,7.677454833984375,-56.75625228881836,-60.22500228881836,-50.04375076293945
1788093363678454800,7.687454833984375,-57.69375228881836,-60.67500305175781,-50.493751525878906
1788093363688455000,7.697454833984375,-57.82500076293945,-59.51250076293945,-50.306251525878906
1788093363698454800,7.707454833984375,-57.82500076293945,-59.51250076293945,-50.306251525878906
1788093363708455000,7.717454833984375,-56.60625076293945,-60.95625305175781,-49.16250228881836
1788093363718454800,7.727454833984375,-57.76875305175781,-57.468753814697266,-49.16250228881836
1788093363728455000,7.737454833984375,-57.76875305175781,-57.468753814697266,-49.16250228881836
1788093363738454800,7.747454833984375,-57.86250305175781,-60.54375076293945,-52.16250228881836
1788093363748455000,7.757454833984375,-58.743751525878906,-59.36250305175781,-50.13750076293945
1788093363758454800,7.767454833984375,-59.94375228881836,-57.900001525878906,-48.093753814697266
1788093363768455000,7.777454833984375,-58.781253814697266,-60.67500305175781,-50.493751525878906
1788093363778454800,7.787454833984375,-57.50625228881836,-58.781253814697266,-51.03750228881836
1788093363788455000,7.797454833984375,-59.23125076293945,-60.243751525878906,-50.306251525878906
1788093363798454800,7.807454833984375,-57.993751525878906,-59.66250228881836,-50.906253814697266
1788093363808455000,7.817454833984375,-57.63750076293945,-58.63125228881836,-50.118751525878906
1788093363818454800,7.827454833984375,-61.23750305175781,-59.66250228881836,-51.16875076293945
1788093363828455000,7.837454833984375,-58.57500076293945,-58.20000076293945,-50.55000305175781
1788093363838454800,7.847454833984375,-58.743751525878906,-59.08125305175781,-51.48750305175781
1788093363848455000,7.857454833984375,-59.17500305175781,-57.20625305175781,-51.54375076293945
1788093363858454800,7.867454833984375,-57.78750228881836,-57.900001525878906,-49.63125228881836
1788093363868455000,7.877454833984375,-58.743751525878906,-58.650001525878906,-51.16875076293945
1788093363878454800,7.887454833984375,-59.343753814697266,-58.05000305175781,-50.08125305175781
1788093363888455000,7.897454833984375,-61.81875228881836,-57.63750076293945,-52.44375228881836
1788093363898454800,7.907454833984375,-59.400001525878906,-60.39375305175781,-52.275001525878906
1788093363908455000,7.917454833984375,-59.98125076293945,-58.80000305175781,-51.000003814697266
1788093363918454800,7.927454833984375,-60.13125228881836,-59.08125305175781,-50.400001525878906
1788093363928455000,7.937454833984375,-59.64375305175781,-57.618751525878906,-50.36250305175781
1788093363938454800,7.947454833984375,-60.91875076293945,-58.80000305175781,-52.05000305175781
1788093363948455000,7.957454833984375,-60.60000228881836,-58.51875305175781,-52.35000228881836
1788093363958454800,7.967454833984375,-60.88125228881836,-57.50625228881836,-52.91250228881836
1788093363968455000,7.977454833984375,-60.60000228881836,-58.781253814697266,-49.931251525878906
1788093363978454800,7.987454833984375,-60.431251525878906,-58.35000228881836,-51.13125228881836
1788093363988455000,7.997454833984375,-62.73750305175781,-57.20625305175781,-52.875003814697266
1788093363998454800,8.007454833984376,-60.900001525878906,-57.937503814697266,-53.681251525878906
1788093364008455000,8.017454833984376,-60.11250305175781,-57.35625076293945,-53.212501525878906
1788093364018454800,8.027454833984375,-61.51875305175781,-58.087501525878906,-53.531253814697266
1788093364038454800,8.047454833984375,-59.98125076293945,-58.80000305175781,-52.368751525878906
1788093364048455000,8.057454833984375,-62.60625076293945,-58.35000228881836,-50.812503814697266
1788093364058454800,8.067454833984375,-61.35000228881836,-57.937503814697266,-52.312503814697266
1788093364068455000,8.077454833984374,-60.58125305175781,-57.50625228881836,-52.91250228881836
1788093364078454800,8.087454833984374,-60.900001525878906,-57.937503814697266,-52.01250076293945
1788093364088455000,8.097454833984376,-62.23125076293945,-55.875003814697266,-50.10000228881836
1788093364098454800,8.107454833984375,-60.39375305175781,-56.343753814697266,-52.70625305175781
1788093364108455000,8.117454833984375,-60.41250228881836,-57.63750076293945,-52.462501525878906
1788093364118454800,8.127454833984375,-61.16250228881836,-56.32500076293945,-50.73750305175781
1788093364128455000,8.137454833984375,-60.45000076293945,-58.66875076293945,-52.500003814697266
1788093364138454800,8.147454833984375,-61.368751525878906,-57.937503814697266,-52.61250305175781
1788093364148455000,8.157454833984374,-63.35625076293945,-56.94375228881836,-54.375003814697266
1788093364158454800,8.167454833984374,-60.750003814697266,-58.650001525878906,-52.20000076293945
1788093364168455000,8.177454833984376,-60.562503814697266,-57.20625305175781,-52.593753814697266
1788093364178454800,8.187454833984376,-61.51875305175781,-58.650001525878906,-51.431251525878906
1788093364188455000,8.197454833984375,-61.650001525878906,-57.20625305175781,-51.97500228881836
1788093364198454800,8.207454833984375,-61.33125305175781,-56.92500305175781,-53.32500076293945
1788093364208455000,8.217454833984375,-60.58125305175781,-58.218753814697266,-52.33125305175781
1788093364218454800,8.227454833984375,-61.462501525878906,-56.04375076293945,-52.38750076293945
1788093364228455000,8.237454833984375,-61.968753814697266,-57.91875076293945,-50.493751525878906
1788093364238454800,8.247454833984374,-62.10000228881836,-56.343753814697266,-52.687503814697266
1788093364248455000,8.257454833984376,-62.306251525878906,-58.23750305175781,-52.91250228881836
1788093364258454800,8.267454833984376,-61.500003814697266,-57.63750076293945,-50.79375076293945
1788093364268455000,8.277454833984375,-62.156253814697266,-59.10000228881836,-52.500003814697266
1788093364278454800,8.287454833984375,-62.26875305175781,-57.20625305175781,-51.22500228881836
1788093364288455000,8.297454833984375,-61.368751525878906,-58.51875305175781,-52.63125228881836
1788093364298454800,8.307454833984375,-60.712501525878906,-57.337501525878906,-51.093753814697266
1788093364308455000,8.317454833984375,-61.95000076293945,-56.906253814697266,-51.20625305175781
1788093364318454800,8.327454833984374,-60.750003814697266,-58.087501525878906,-52.781253814697266
1788093364328455000,8.337454833984374,-60.750003814697266,-58.650001525878906,-51.150001525878906
1788093364338454800,8.347454833984376,-59.94375228881836,-57.48750305175781,-50.493751525878906
1788093364348455000,8.357454833984375,-61.70625305175781,-59.250003814697266,-52.368751525878906
1788093364358454800,8.367454833984375,-61.70625305175781,-59.812503814697266,-51.337501525878906
1788093364368455000,8.377454833984375,-60.91875076293945,-58.80000305175781,-52.35000228881836
1788093364378454800,8.387454833984375,-61.98750305175781,-58.80000305175781,-50.98125076293945
1788093364388455000,8.397454833984375,-61.968753814697266,-57.91875076293945,-51.243751525878906
1788093364398454800,8.407454833984374,-60.000003814697266,-59.812503814697266,-51.337501525878906
1788093364408455000,8.417454833984374,-61.181251525878906,-57.63750076293945,-51.093753814697266
1788093364418454800,8.427454833984376,-60.431251525878906,-58.650001525878906,-50.38125228881836
1788093364428455000,8.437454833984376,-59.66250228881836,-58.650001525878906,-50.85000228881836
1788093364438454800,8.447454833984375,-61.25625228881836,-60.39375305175781,-51.50625228881836
1788093364448455000,8.457454833984375,-61.406253814697266,-59.812503814697266,-52.087501525878906
1788093364458454800,8.467454833984375,-59.92500305175781,-56.47500228881836,-51.97500228881836
1788093364468455000,8.477454833984375,-60.30000305175781,-59.51250076293945,-51.03750228881836
1788093364478454800,8.487454833984375,-60.76875305175781,-59.36250305175781,-50.118751525878906
1788093364488455000,8.497454833984374,-58.63125228881836,-60.525001525878906,-50.025001525878906
1788093364498454800,8.507454833984376,-61.20000076293945,-58.06875228881836,-50.812503814697266
1788093364508455000,8.517454833984376,-60.000003814697266,-59.531253814697266,-51.63750076293945
1788093364518454800,8.527454833984375,-60.000003814697266,-59.812503814697266,-50.587501525878906
1788093364528455000,8.537454833984375,-60.000003814697266,-59.531253814697266,-52.38750076293945
1788093364538454800,8.547454833984375,-61.33125305175781,-57.468753814697266,-49.875003814697266
1788093364548455000,8.557454833984375,-59.400001525878906,-60.39375305175781,-50.92500305175781
1788093364558454800,8.567454833984375,-59.531253814697266,-59.23125076293945,-51.63750076293945
1788093364568455000,8.577454833984374,-58.76250076293945,-59.66250228881836,-51.50625228881836
1788093364578454800,8.587454833984374,-60.78750228881836,-60.39375305175781,-50.906253814697266
1788093364588455000,8.597454833984376,-60.63750076293945,-60.243751525878906,-50.60625076293945
1788093364598454800,8.607454833984375,-60.281253814697266,-58.781253814697266,-49.181251525878906
1788093364608455000,8.617454833984375,-60.750003814697266,-59.062503814697266,-48.73125076293945
1788093364618454800,8.627454833984375,-61.218753814697266,-59.08125305175781,-51.150001525878906
1788093364638454800,8.647454833984375,-59.10000228881836,-60.67500305175781,-50.94375228881836
1788093364648455000,8.657454833984374,-60.618751525878906,-59.812503814697266,-50.587501525878906
1788093364658454800,8.667454833984374,-59.66250228881836,-58.63125228881836,-49.80000305175781
1788093364668455000,8.677454833984376,-60.78750228881836,-59.962501525878906,-51.187503814697266
1788093364678454800,8.687454833984376,-60.750003814697266,-58.368751525878906,-52.181251525878906
1788093364688455000,8.697454833984375,-59.98125076293945,-58.80000305175781,-52.368751525878906
1788093364698454800,8.707454833984375,-60.750003814697266,-58.63125228881836,-49.781253814697266
1788093364708455000,8.717454833984375,-61.275001525878906,-60.97500228881836,-50.92500305175781
1788093364718454800,8.727454833984375,-60.30000305175781,-59.212501525878906,-49.968753814697266
1788093364728455000,8.737454833984375,-61.837501525878906,-59.08125305175781,-50.08125305175781
1788093364738454800,8.747454833984374,-60.78750228881836,-60.67500305175781,-49.85625076293945
1788093364748455000,8.757454833984376,-61.81875228881836,-57.63750076293945,-50.79375076293945
1788093364758454800,8.767454833984376,-59.23125076293945,-59.79375076293945,-50.60625076293945
1788093364768455000,8.777454833984375,-61.25625228881836,-60.67500305175781,-49.406253814697266
1788093364778454800,8.787454833984375,-61.85625076293945,-59.38125228881836,-51.468753814697266
1788093364788455000,8.797454833984375,-61.85625076293945,-59.38125228881836,-51.468753814697266
1788093364798454800,8.807454833984375,-60.150001525878906,-59.64375305175781,-49.368751525878906
1788093364808455000,8.817454833984375,-61.23750305175781,-59.64375305175781,-49.06875228881836
1788093364818454800,8.827454833984374,-62.79375076293945,-59.812503814697266,-51.31875228881836
1788093364828455000,8.837454833984374,-61.406253814697266,-59.812503814697266,-51.337501525878906
1788093364838454800,8.847454833984376,-59.38125228881836,-59.38125228881836,-52.23750305175781
1788093364848455000,8.857454833984375,-61.72500228881836,-60.243751525878906,-49.98750305175781
1788093364858454800,8.867454833984375,-59.962501525878906,-58.20000076293945,-48.86250305175781
1788093364868455000,8.877454833984375,-60.76875305175781,-59.66250228881836,-50.41875076293945
1788093364878454800,8.887454833984375,-60.60000228881836,-58.781253814697266,-50.250003814697266
1788093364888455000,8.897454833984375,-61.368751525878906,-58.500003814697266,-50.98125076293945
1788093364898454800,8.907454833984374,-60.150001525878906,-59.66250228881836,-50.437503814697266
1788093364908455000,8.917454833984374,-62.306251525878906,-59.51250076293945,-49.20000076293945
1788093364918454800,8.927454833984376,-61.406253814697266,-60.525001525878906,-50.00625228881836
1788093364928455000,8.937454833984376,-60.91875076293945,-59.79375076293945,-48.91875076293945
1788093364938454800,8.947454833984375,-63.54375076293945,-59.36250305175781,-49.33125305175781
1788093364948455000,8.957454833984375,-61.85625076293945,-59.66250228881836,-51.468753814697266
1788093364958454800,8.967454833984375,-59.681251525878906,-59.08125305175781,-50.868751525878906
1788093364968455000,8.977454833984375,-58.70625305175781,-57.337501525878906,-50.04375076293945
1788093364978454800,8.987454833984375,-62.025001525878906,-60.50625228881836,-47.88750076293945
1788093364988455000,8.997454833984374,-62.343753814697266,-60.525001525878906,-49.23750305175781
1788093364998454800,9.007454833984376,-61.29375076293945,-61.968753814697266,-49.462501525878906
1788093365008455000,9.017454833984376,-60.806251525878906,-61.38750076293945,-49.14375305175781
1788093365018454800,9.027454833984375,-61.406253814697266,-60.525001525878906,-50.00625228881836
1788093365028455000,9.037454833984375,-62.60625076293945,-58.63125228881836,-48.712501525878906
1788093365038454800,9.047454833984375,-61.57500076293945,-60.97500228881836,-50.47500228881836
1788093365048455000,9.057454833984375,-62.156253814697266,-59.38125228881836,-50.85000228881836
1788093365058454800,9.067454833984375,-61.20000076293945,-58.63125228881836,-48.712501525878906
1788093365068455000,9.077454833984374,-61.687503814697266,-59.212501525878906,-49.181251525878906
1788093365078454800,9.087454833984374,-61.85625076293945,-59.10000228881836,-51.750003814697266
1788093365088455000,9.097454833984376,-62.75625228881836,-58.48125076293945,-49.14375305175781
1788093365098454800,9.107454833984375,-62.906253814697266,-58.63125228881836,-49.01250076293945
1788093365118454800,9.127454833984375,-63.41250228881836,-59.812503814697266,-51.618751525878906
1788093365128455000,9.137454833984375,-61.968753814697266,-57.48750305175781,-50.47500228881836
1788093365138454800,9.147454833984375,-62.75625228881836,-58.500003814697266,-50.51250076293945
1788093365148455000,9.157454833984374,-62.962501525878906,-60.39375305175781,-50.437503814697266
1788093365158454800,9.167454833984374,-61.368751525878906,-58.218753814697266,-51.26250076293945
1788093365168455000,9.177454833984376,-62.64375305175781,-59.94375228881836,-50.41875076293945
1788093365178454800,9.187454833984376,-64.125,-57.20625305175781,-51.50625228881836
1788093365188455000,9.197454833984375,-64.3125,-58.650001525878906,-50.343753814697266
1788093365198454800,9.207454833984375,-61.968753814697266,-57.91875076293945,-50.19375228881836
1788093365208455000,9.217454833984375,-61.35000228881836,-57.91875076293945,-50.19375228881836
1788093365218454800,9.227454833984375,-62.17500305175781,-59.94375228881836,-50.41875076293945
1788093365228455000,9.237454833984375,-62.775001525878906,-58.80000305175781,-51.281253814697266
1788093365238454800,9.247454833984374,-62.306251525878906,-58.500003814697266,-50.962501525878906
1788093365248455000,9.257454833984376,-63.20625305175781,-57.63750076293945,-51.375003814697266
1788093365258454800,9.267454833984376,-62.775001525878906,-59.212501525878906,-49.63125228881836
1788093365268455000,9.277454833984375,-61.51875305175781,-58.650001525878906,-50.83125305175781
1788093365278454800,9.287454833984375,-62.812503814697266,-60.54375076293945,-52.406253814697266
1788093365288455000,9.297454833984375,-63.993751525878906,-58.368751525878906,-51.093753814697266
1788093365298454800,9.307454833984375,-61.38750076293945,-59.51250076293945,-49.650001525878906
1788093365308455000,9.317454833984375,-63.431251525878906,-60.26250076293945,-51.63750076293945
1788093365318454800,9.327454833984374,-62.906253814697266,-58.06875228881836,-51.093753814697266
1788093365328455000,9.337454833984374,-63.187503814697266,-56.75625228881836,-49.98750305175781
1788093365338454800,9.347454833984376,-62.60625076293945,-58.368751525878906,-51.11250305175781
1788093365348455000,9.357454833984375,-63.41250228881836,-59.531253814697266,-51.30000305175781
1788093365358454800,9.367454833984375,-63.82500076293945,-57.48750305175781,-51.20625305175781
1788093365368455000,9.377454833984375,-64.76250457763672,-57.50625228881836,-51.50625228881836
1788093365378454800,9.387454833984375,-64.48125457763672,-58.80000305175781,-50.19375228881836
1788093365388455000,9.397454833984375,-62.73750305175781,-58.20000076293945,-48.843753814697266
1788093365398454800,9.407454833984374,-63.375003814697266,-58.218753814697266,-50.94375228881836
1788093365408455000,9.417454833984374,-63.26250076293945,-59.962501525878906,-51.468753814697266
1788093365418454800,9.427454833984376,-64.63125610351562,-58.650001525878906,-51.093753814697266
1788093365428455000,9.437454833984376,-63.41250228881836,-59.812503814697266,-51.618751525878906
1788093365438454800,9.447454833984375,-63.525001525878906,-58.35000228881836,-48.993751525878906
1788093365448455000,9.457454833984375,-64.63125610351562,-59.062503814697266,-48.69375228881836
1788093365458454800,9.467454833984375,-62.92500305175781,-59.062503814697266,-48.41250228881836
1788093365468455000,9.477454833984375,-64.95000457763672,-59.66250228881836,-49.781253814697266
1788093365478454800,9.487454833984375,-64.33125305175781,-59.66250228881836,-50.08125305175781
1788093365488455000,9.497454833984374,-62.56875228881836,-57.03750228881836,-50.00625228881836
1788093365498454800,9.507454833984376,-63.26250076293945,-59.681251525878906,-51.45000076293945
1788093365508455000,9.517454833984376,-64.5,-59.79375076293945,-48.88125228881836
1788093365518454800,9.527454833984375,-63.375003814697266,-58.48125076293945,-48.843753814697266
1788093365528455000,9.537454833984375,-63.86250305175781,-59.250003814697266,-52.031253814697266
1788093365538454800,9.547454833984375,-63.88125228881836,-59.812503814697266,-50.55000305175781
1788093365548455000,9.557454833984375,-64.14375305175781,-57.91875076293945,-50.17500305175781
1788093365558454800,9.567454833984375,-63.243751525878906,-59.08125305175781,-49.312503814697266
1788093365568455000,9.577454833984374,-63.58125305175781,-60.656253814697266,-48.468753814697266
1788093365578454800,9.587454833984374,-63.60000228881836,-60.69375228881836,-52.25625228881836
1788093365588455000,9.597454833984376,-62.94375228881836,-59.94375228881836,-50.41875076293945
1788093365598454800,9.607454833984375,-62.94375228881836,-59.66250228881836,-50.400001525878906
1788093365608455000,9.617454833984375,-62.79375076293945,-60.243751525878906,-49.968753814697266
1788093365618454800,9.627454833984375,-62.775001525878906,-59.51250076293945,-48.88125228881836
1788093365628455000,9.637454833984375,-64.63125610351562,-58.650001525878906,-50.04375076293945
1788093365638454800,9.647454833984375,-63.54375076293945,-59.343753814697266,-47.66250228881836
1788093365648455000,9.657454833984374,-64.20000457763672,-60.243751525878906,-49.20000076293945
1788093365658454800,9.667454833984374,-62.025001525878906,-60.50625228881836,-47.88750076293945
1788093365668455000,9.677454833984376,-63.900001525878906,-60.806251525878906,-48.937503814697266
1788093365678454800,9.687454833984376,-65.56875610351562,-59.51250076293945,-50.212501525878906
1788093365688455000,9.697454833984375,-62.062503814697266,-62.10000228881836,-47.94375228881836
1788093365698454800,9.707454833984375,-64.6500015258789,-59.94375228881836,-49.33125305175781
1788093365708455000,9.717454833984375,-63.26250076293945,-60.39375305175781,-50.118751525878906
1788093365718454800,9.727454833984375,-61.70625305175781,-59.51250076293945,-50.26875305175781
1788093365728455000,9.737454833984375,-62.625003814697266,-59.64375305175781,-49.05000305175781
1788093365738454800,9.747454833984374,-62.00625228881836,-59.493751525878906,-48.900001525878906
1788093365748455000,9.757454833984376,-64.01250457763672,-59.36250305175781,-48.712501525878906
1788093365758454800,9.767454833984376,-63.91875076293945,-61.81875228881836,-48.67500305175781
1788093365768455000,9.777454833984375,-63.900001525878906,-60.806251525878906,-48.16875076293945
1788093365778454800,9.787454833984375,-63.13125228881836,-61.53750228881836,-48.20625305175781
1788093365788455000,9.797454833984375,-63.093753814697266,-59.79375076293945,-49.650001525878906
1788093365798454800,9.807454833984375,-63.900001525878906,-60.806251525878906,-47.868751525878906
1788093365808455000,9.817454833984375,-62.66250228881836,-60.95625305175781,-49.10625076293945
1788093365818454800,9.827454833984374,-62.025001525878906,-60.50625228881836,-47.56875228881836
1788093365838454800,9.847454833984376,-63.58125305175781,-60.67500305175781,-49.38750076293945
1788093365848455000,9.857454833984375,-64.38750457763672,-61.406253814697266,-49.406253814697266
1788093365858454800,9.867454833984375,-62.812503814697266,-60.82500076293945,-50.00625228881836
1788093365868455000,9.877454833984375,-62.812503814697266,-60.82500076293945,-50.00625228881836
1788093365878454800,9.887454833984375,-64.33125305175781,-59.64375305175781,-49.031253814697266
1788093365888455000,9.897454833984375,-64.33125305175781,-59.64375305175781,-49.031253814697266
1788093365898454800,9.907454833984374,-62.08125305175781,-62.55000305175781,-47.66250228881836
1788093365908455000,9.917454833984374,-63.281253814697266,-60.67500305175781,-49.837501525878906
1788093365918454800,9.927454833984376,-62.681251525878906,-61.687503814697266,-49.42500305175781
1788093365928455000,9.937454833984376,-62.812503814697266,-61.23750305175781,-48.20625305175781
1788093365938454800,9.947454833984375,-64.05000305175781,-60.656253814697266,-47.71875
1788093365948455000,9.957454833984375,-63.91875076293945,-61.53750228881836,-48.656253814697266
1788093365958454800,9.967454833984375,-63.093753814697266,-59.79375076293945,-48.900001525878906
1788093365968455000,9.977454833984375,-63.11250305175781,-60.50625228881836,-47.56875228881836
1788093365978454800,9.987454833984375,-63.900001525878906,-60.806251525878906,-48.16875076293945
1788093365988455000,9.997454833984374,-64.66875457763672,-60.375003814697266,-48.750003814697266
1788093365998454800,10.007454833984376,-62.17500305175781,-59.92500305175781,-48.45000076293945
1788093366008455000,10.017454833984376,-62.625003814697266,-59.64375305175781,-47.681251525878906
1788093366018454800,10.027454833984375,-62.212501525878906,-61.968753814697266,-48.093753814697266
1788093366028455000,10.037454833984375,-62.66250228881836,-60.937503814697266,-47.73750305175781
1788093366038454800,10.047454833984375,-62.19375228881836,-60.95625305175781,-48.03750228881836
1788093366048455000,10.057454833984375,-62.83125305175781,-61.81875228881836,-48.67500305175781
1788093366058454800,10.067454833984375,-62.23125076293945,-62.400001525878906,-48.11250305175781
1788093366068455000,10.077454833984374,-63.618751525878906,-61.687503814697266,-49.125003814697266
1788093366078454800,10.087454833984374,-60.78750228881836,-60.375003814697266,-48.78750228881836
1788093366088455000,10.097454833984376,-64.53750610351562,-61.81875228881836,-48.656253814697266
1788093366098454800,10.107454833984375,-62.94375228881836,-60.375003814697266,-48.01875305175781
1788093366108455000,10.117454833984375,-61.743751525878906,-61.53750228881836,-49.743751525878906
1788093366118454800,10.127454833984375,-62.83125305175781,-61.81875228881836,-47.92500305175781
1788093366128455000,10.137454833984375,-62.66250228881836,-60.95625305175781,-49.10625076293945
1788093366138454800,10.147454833984375,-62.98125076293945,-61.66875076293945,-47.00625228881836
1788093366148455000,10.157454833984374,-62.66250228881836,-60.67500305175781,-49.087501525878906
1788093366158454800,10.167454833984374,-63.093753814697266,-59.51250076293945,-48.88125228881836
1788093366168455000,10.177454833984376,-62.92500305175781,-59.36250305175781,-48.73125076293945
1788093366178454800,10.187454833984376,-61.687503814697266,-59.19375228881836,-47.83125305175781
1788093366188455000,10.197454833984375,-62.79375076293945,-60.22500228881836,-48.618751525878906
1788093366198454800,10.207454833984375,-63.91875076293945,-61.81875228881836,-48.20625305175781
1788093366208455000,10.217454833984375,-61.29375076293945,-61.968753814697266,-47.79375076293945
1788093366218454800,10.227454833984375,-62.868751525878906,-62.85000228881836,-49.031253814697266
1788093366228455000,10.237454833984375,-63.13125228881836,-60.806251525878906,-48.937503814697266
1788093366238454800,10.247454833984374,-62.17500305175781,-60.656253814697266,-47.73750305175781
1788093366248455000,10.257454833984376,-62.962501525878906,-60.95625305175781,-48.03750228881836
1788093366258454800,10.267454833984376,-61.25625228881836,-60.656253814697266,-48.03750228881836
1788093366268455000,10.277454833984375,-63.150001525878906,-61.556251525878906,-50.025001525878906
1788093366278454800,10.287454833984375,-62.812503814697266,-60.806251525878906,-49.23750305175781
1788093366288455000,10.297454833984375,-63.41250228881836,-60.22500228881836,-49.218753814697266
1788093366298454800,10.307454833984375,-63.431251525878906,-60.806251525878906,-48.187503814697266
1788093366318454800,10.327454833984374,-63.13125228881836,-61.51875305175781,-46.85625076293945
1788093366328455000,10.337454833984374,-63.58125305175781,-60.375003814697266,-48.468753814697266
1788093366338454800,10.347454833984376,-63.13125228881836,-60.82500076293945,-50.306251525878906
1788093366348455000,10.357454833984375,-63.26250076293945,-60.656253814697266,-48.468753814697266
1788093366358454800,10.367454833984375,-62.812503814697266,-60.806251525878906,-49.23750305175781
1788093366368455000,10.377454833984375,-63.88125228881836,-60.22500228881836,-48.900001525878906
1788093366378454800,10.387454833984375,-62.70000076293945,-62.98125076293945,-48.13125228881836
1788093366388455000,10.397454833984375,-63.41250228881836,-60.22500228881836,-47.25
1788093366398454800,10.407454833984374,-61.593753814697266,-61.38750076293945,-48.525001525878906
1788093366408455000,10.417454833984374,-61.593753814697266,-61.968753814697266,-48.54375076293945
1788093366418454800,10.427454833984376,-62.962501525878906,-60.937503814697266,-46.98750305175781
1788093366428455000,10.437454833984376,-62.83125305175781,-61.81875228881836,-47.92500305175781
1788093366438454800,10.447454833984375,-62.025001525878906,-60.22500228881836,-48.91875076293945
1788093366448455000,10.457454833984375,-64.33125305175781,-59.94375228881836,-48.73125076293945
1788093366458454800,10.467454833984375,-62.92500305175781,-59.062503814697266,-48.712501525878906
1788093366468455000,10.477454833984375,-63.63750076293945,-62.41875076293945,-49.44375228881836
1788093366478454800,10.487454833984375,-63.468753814697266,-62.55000305175781,-49.312503814697266
1788093366488455000,10.497454833984374,-63.13125228881836,-61.53750228881836,-48.97500228881836
1788093366498454800,10.507454833984376,-62.38125228881836,-62.118751525878906,-49.29375076293945
1788093366508455000,10.517454833984376,-63.13125228881836,-61.25625228881836,-50.00625228881836
1788093366518454800,10.527454833984375,-63.562503814697266,-59.92500305175781,-46.931251525878906
1788093366528455000,10.537454833984375,-63.11250305175781,-60.22500228881836,-48.150001525878906
1788093366538454800,10.547454833984375,-62.32500076293945,-59.79375076293945,-49.20000076293945
1788093366548455000,10.557454833984375,-64.3687515258789,-61.38750076293945,-48.03750228881836
1788093366558454800,10.567454833984375,-61.875003814697266,-60.67500305175781,-49.85625076293945
1788093366568455000,10.577454833984374,-61.70625305175781,-59.79375076293945,-49.218753814697266
1788093366578454800,10.587454833984374,-61.743751525878906,-61.23750305175781,-48.20625305175781
1788093366588455000,10.597454833984376,-64.05000305175781,-60.39375305175781,-49.81875228881836
1788093366598454800,10.607454833984375,-62.400001525878906,-62.83125305175781,-48.26250076293945
1788093366608455000,10.617454833984375,-60.97500228881836,-62.10000228881836,-48.26250076293945
1788093366618454800,10.627454833984375,-62.025001525878906,-60.806251525878906,-47.587501525878906
1788093366638454800,10.647454833984375,-62.19375228881836,-60.95625305175781,-48.50625228881836
1788093366648455000,10.657454833984374,-63.431251525878906,-60.806251525878906,-47.868751525878906
1788093366658454800,10.667454833984374,-64.23750305175781,-61.81875228881836,-48.20625305175781
1788093366668455000,10.677454833984376,-62.83125305175781,-61.23750305175781,-48.95625305175781
1788093366678454800,10.687454833984376,-60.337501525878906,-61.23750305175781,-48.22500228881836
1788093366688455000,10.697454833984375,-60.45000076293945,-59.64375305175781,-49.368751525878906
1788093366698454800,10.707454833984375,-63.243751525878906,-59.66250228881836,-50.10000228881836
1788093366708455000,10.717454833984375,-62.812503814697266,-60.243751525878906,-50.587501525878906
1788093366718454800,10.727454833984375,-61.743751525878906,-61.23750305175781,-48.20625305175781
1788093366728455000,10.737454833984375,-60.76875305175781,-59.64375305175781,-47.70000076293945
1788093366738454800,10.747454833984374,-62.79375076293945,-60.243751525878906,-49.66875076293945
1788093366748455000,10.757454833984376,-62.94375228881836,-59.94375228881836,-48.750003814697266
1788093366758454800,10.767454833984376,-61.875003814697266,-60.67500305175781,-49.406253814697266
1788093366768455000,10.777454833984375,-62.962501525878906,-60.375003814697266,-48.76875305175781
1788093366778454800,10.787454833984375,-61.72500228881836,-60.525001525878906,-50.00625228881836
1788093366788455000,10.797454833984375,-60.50625228881836,-61.968753814697266,-48.11250305175781
1788093366798454800,10.807454833984375,-60.937503814697266,-60.22500228881836,-48.937503814697266
1788093366808455000,10.817454833984375,-62.962501525878906,-60.656253814697266,-48.48750305175781
1788093366818454800,10.827454833984374,-61.76250076293945,-62.118751525878906,-49.312503814697266
1788093366828455000,10.837454833984374,-62.83125305175781,-61.53750228881836,-49.275001525878906
1788093366838454800,10.847454833984376,-61.743751525878906,-61.23750305175781,-48.97500228881836
1788093366848455000,10.857454833984375,-61.837501525878906,-59.625003814697266,-46.03125
1788093366858454800,10.867454833984375,-63.13125228881836,-61.53750228881836,-48.20625305175781
1788093366868455000,10.877454833984375,-62.36250305175781,-61.25625228881836,-49.72500228881836
1788093366878454800,10.887454833984375,-62.681251525878906,-61.687503814697266,-49.125003814697266
1788093366888455000,10.897454833984375,-62.19375228881836,-60.656253814697266,-48.48750305175781
1788093366898454800,10.907454833984374,-62.343753814697266,-60.525001525878906,-50.28750228881836
1788093366908455000,10.917454833984374,-62.025001525878906,-60.525001525878906,-48.63750076293945
1788093366918454800,10.927454833984376,-62.306251525878906,-59.212501525878906,-49.63125228881836
1788093366928455000,10.937454833984376,-61.25625228881836,-60.63750076293945,-46.98750305175781
1788093366938454800,10.947454833984375,-61.85625076293945,-59.94375228881836,-50.118751525878906
1788093366948455000,10.957454833984375,-61.85625076293945,-59.94375228881836,-50.118751525878906
1788093366958454800,10.967454833984375,-62.23125076293945,-62.41875076293945,-49.462501525878906
1788093366968455000,10.977454833984375,-60.937503814697266,-60.50625228881836,-48.187503814697266
1788093366978454800,10.987454833984375,-60.656253814697266,-61.51875305175781,-48.243751525878906
1788093366988455000,10.997454833984374,-62.04375076293945,-61.25625228881836,-50.025001525878906
1788093366998454800,11.007454833984376,-59.38125228881836,-60.375003814697266,-48.806251525878906
1788093367008455000,11.017454833984376,-60.91875076293945,-59.79375076293945,-49.218753814697266
1788093367018454800,11.027454833984375,-62.156253814697266,-59.64375305175781,-49.05000305175781
1788093367028455000,11.037454833984375,-60.63750076293945,-60.525001525878906,-49.25625228881836
1788093367038454800,11.047454833984375,-61.556251525878906,-60.656253814697266,-47.73750305175781
1788093367048455000,11.057454833984375,-63.093753814697266,-59.51250076293945,-48.88125228881836
1788093367058454800,11.067454833984375,-62.64375305175781,-60.375003814697266,-49.06875228881836
1788093367068455000,11.077454833984374,-62.775001525878906,-58.781253814697266,-50.212501525878906
1788093367078454800,11.087454833984374,-61.275001525878906,-61.368751525878906,-47.47500228881836
1788093367088455000,11.097454833984376,-61.38750076293945,-59.79375076293945,-48.618751525878906
1788093367098454800,11.107454833984375,-62.812503814697266,-60.806251525878906,-48.187503814697266
1788093367108455000,11.117454833984375,-60.000003814697266,-59.775001525878906,-48.16875076293945
1788093367118454800,11.127454833984375,-61.89375305175781,-60.95625305175781,-49.10625076293945
1788093367128455000,11.137454833984375,-62.962501525878906,-60.67500305175781,-49.837501525878906
1788093367138454800,11.147454833984375,-60.97500228881836,-62.10000228881836,-47.64375305175781
1788093367148455000,11.157454833984374,-62.025001525878906,-60.22500228881836,-48.91875076293945
1788093367158454800,11.167454833984374,-60.97500228881836,-61.837501525878906,-50.36250305175781
1788093367168455000,11.177454833984376,-61.44375228881836,-61.53750228881836,-48.97500228881836
1788093367178454800,11.187454833984376,-62.17500305175781,-60.656253814697266,-47.4375
1788093367188455000,11.197454833984375,-60.97500228881836,-61.53750228881836,-49.743751525878906
1788093367198454800,11.207454833984375,-60.60000228881836,-59.493751525878906,-48.60000228881836
1788093367208455000,11.217454833984375,-62.00625228881836,-59.493751525878906,-48.60000228881836
1788093367218454800,11.227454833984375,-61.42500305175781,-61.25625228881836,-49.72500228881836
1788093367228455000,11.237454833984375,-60.30000305175781,-59.493751525878906,-49.218753814697266
1788093367238454800,11.247454833984374,-62.17500305175781,-59.94375228881836,-50.118751525878906
1788093367248455000,11.257454833984376,-60.30000305175781,-59.79375076293945,-49.687503814697266
1788093367258454800,11.267454833984376,-61.406253814697266,-60.22500228881836,-49.687503814697266
1788093367268455000,11.277454833984375,-61.85625076293945,-59.64375305175781,-49.35000228881836
1788093367278454800,11.287454833984375,-61.98750305175781,-59.212501525878906,-48.13125228881836
1788093367288455000,11.297454833984375,-62.00625228881836,-59.79375076293945,-49.218753814697266
1788093367298454800,11.307454833984375,-60.76875305175781,-59.66250228881836,-50.118751525878906
1788093367308455000,11.317454833984375,-61.38750076293945,-59.51250076293945,-49.968753814697266
1788093367318454800,11.327454833984374,-62.00625228881836,-59.212501525878906,-49.181251525878906
1788093367328455000,11.337454833984374,-59.531253814697266,-59.79375076293945,-49.98750305175781
1788093367338454800,11.347454833984376,-61.98750305175781,-59.212501525878906,-48.13125228881836
1788093367348455000,11.357454833984375,-61.556251525878906,-59.94375228881836,-49.368751525878906
1788093367358454800,11.367454833984375,-63.243751525878906,-59.66250228881836,-49.80000305175781
1788093367368455000,11.377454833984375,-61.89375305175781,-60.95625305175781,-49.10625076293945
1788093367378454800,11.387454833984375,-61.275001525878906,-61.38750076293945,-48.82500076293945
1788093367388455000,11.397454833984375,-61.687503814697266,-58.781253814697266,-49.931251525878906
1788093367398454800,11.407454833984374,-61.53750228881836,-59.64375305175781,-48.750003814697266
1788093367418454800,11.427454833984376,-62.025001525878906,-60.22500228881836,-49.218753814697266
1788093367428455000,11.437454833984376,-59.70000076293945,-60.375003814697266,-49.10625076293945
1788093367438454800,11.447454833984375,-62.156253814697266,-59.64375305175781,-49.05000305175781
1788093367448455000,11.457454833984375,-63.093753814697266,-59.23125076293945,-50.531253814697266
1788093367458454800,11.467454833984375,-62.28750228881836,-58.781253814697266,-48.86250305175781
1788093367468455000,11.477454833984375,-60.60000228881836,-58.781253814697266,-49.181251525878906
1788093367478454800,11.487454833984375,-62.83125305175781,-61.25625228881836,-49.25625228881836
1788093367488455000,11.497454833984374,-62.17500305175781,-60.656253814697266,-46.96875
1788093367498454800,11.507454833984376,-61.687503814697266,-59.51250076293945,-49.20000076293945
1788093367518454800,11.527454833984375,-62.625003814697266,-59.94375228881836,-48.45000076293945
1788093367528455000,11.537454833984375,-64.63125610351562,-59.062503814697266,-47.94375228881836
1788093367538454800,11.547454833984375,-64.16250610351562,-58.781253814697266,-48.54375076293945
1788093367548455000,11.557454833984375,-63.50625228881836,-57.60000228881836,-47.90625
1788093367558454800,11.567454833984375,-61.406253814697266,-60.22500228881836,-49.23750305175781
1788093367568455000,11.577454833984374,-61.53750228881836,-59.36250305175781,-49.05000305175781
1788093367578454800,11.587454833984374,-63.243751525878906,-59.08125305175781,-50.08125305175781
1788093367588455000,11.597454833984376,-62.75625228881836,-58.500003814697266,-50.212501525878906
1788093367598454800,11.607454833984375,-63.39375305175781,-59.23125076293945,-49.931251525878906
1788093367608455000,11.617454833984375,-62.94375228881836,-59.66250228881836,-50.10000228881836
1788093367618454800,11.627454833984375,-62.94375228881836,-59.64375305175781,-49.35000228881836
1788093367628455000,11.637454833984375,-62.681251525878906,-61.66875076293945,-47.775001525878906
1788093367638454800,11.647454833984375,-64.03125,-59.64375305175781,-49.031253814697266
1788093367648455000,11.657454833984374,-64.57500457763672,-57.056251525878906,-49.98750305175781
1788093367658454800,11.667454833984374,-62.00625228881836,-59.493751525878906,-48.60000228881836
1788093367668455000,11.677454833984376,-61.98750305175781,-59.19375228881836,-47.83125305175781
1788093367678454800,11.687454833984376,-63.525001525878906,-58.63125228881836,-49.29375076293945
1788093367688455000,11.697454833984375,-63.07500076293945,-59.212501525878906,-48.562503814697266
1788093367698454800,11.707454833984375,-63.993751525878906,-58.06875228881836,-50.025001525878906
1788093367708455000,11.717454833984375,-61.53750228881836,-59.36250305175781,-49.05000305175781
1788093367718454800,11.727454833984375,-62.118751525878906,-58.05000305175781,-48.993751525878906
1788093367728455000,11.737454833984375,-63.20625305175781,-58.35000228881836,-48.993751525878906
1788093367738454800,11.747454833984374,-61.85625076293945,-59.64375305175781,-49.35000228881836
1788093367748455000,11.757454833984376,-64.4625015258789,-58.500003814697266,-50.94375228881836
1788093367758454800,11.767454833984376,-65.26875305175781,-59.812503814697266,-49.63125228881836
1788093367768455000,11.777454833984375,-62.681251525878906,-61.70625305175781,-50.94375228881836
1788093367778454800,11.787454833984375,-65.36250305175781,-57.618751525878906,-49.23750305175781
1788093367788455000,11.797454833984375,-64.01250457763672,-59.08125305175781,-50.36250305175781
1788093367798454800,11.807454833984375,-64.89375305175781,-57.618751525878906,-48.337501525878906
1788093367808455000,11.817454833984375,-62.306251525878906,-59.212501525878906,-49.63125228881836
1788093367818454800,11.827454833984374,-63.843753814697266,-58.781253814697266,-49.61250305175781
1788093367828455000,11.837454833984374,-62.775001525878906,-59.51250076293945,-48.88125228881836
1788093367838454800,11.847454833984376,-65.25,-59.23125076293945,-50.212501525878906
1788093367848455000,11.857454833984375,-64.4625015258789,-58.500003814697266,-49.89375305175781
1788093367858454800,11.867454833984375,-64.78125,-58.781253814697266,-49.89375305175781
1788093367868455000,11.877454833984375,-63.843753814697266,-58.500003814697266,-49.14375305175781
1788093367878454800,11.887454833984375,-63.20625305175781,-57.63750076293945,-52.125003814697266
1788093367888455000,11.897454833984375,-63.22500228881836,-58.650001525878906,-50.062503814697266
1788093367898454800,11.907454833984374,-65.53125,-57.50625228881836,-51.50625228881836
1788093367908455000,11.917454833984374,-64.78125,-58.51875305175781,-51.54375076293945
1788093367918454800,11.927454833984376,-64.91250610351562,-58.06875228881836,-49.70625305175781
1788093367928455000,11.937454833984376,-64.76250457763672,-58.20000076293945,-49.875003814697266
1788093367938454800,11.947454833984375,-64.3125,-58.63125228881836,-49.29375076293945
1788093367948455000,11.957454833984375,-64.76250457763672,-58.218753814697266,-50.92500305175781
1788093367958454800,11.967454833984375,-62.92500305175781,-58.650001525878906,-50.36250305175781
1788093367968455000,11.977454833984375,-62.906253814697266,-58.35000228881836,-48.993751525878906
1788093367978454800,11.987454833984375,-64.81875610351562,-60.525001525878906,-49.66875076293945
1788093367988455000,11.997454833984374,-63.50625228881836,-57.63750076293945,-50.32500076293945
1788093367998454800,12.007454833984376,-65.6812515258789,-57.337501525878906,-49.687503814697266
1788093368008455000,12.017454833984376,-64.16250610351562,-59.212501525878906,-48.11250305175781
1788093368018454800,12.027454833984375,-64.16250610351562,-59.212501525878906,-48.11250305175781
1788093368028455000,12.037454833984375,-62.28750228881836,-58.20000076293945,-50.19375228881836
1788093368038454800,12.047454833984375,-63.88125228881836,-60.525001525878906,-48.91875076293945
1788093368048455000,12.057454833984375,-63.88125228881836,-60.525001525878906,-48.91875076293945
1788093368058454800,12.067454833984375,-65.71875,-59.38125228881836,-50.062503814697266
1788093368068455000,12.077454833984374,-64.35000610351562,-60.375003814697266,-49.368751525878906
1788093368078454800,12.087454833984374,-64.01250457763672,-59.062503814697266,-48.712501525878906
1788093368088455000,12.097454833984376,-64.78125,-58.80000305175781,-51.26250076293945
1788093368098454800,12.107454833984375,-64.89375305175781,-57.056251525878906,-49.968753814697266
1788093368108455000,12.117454833984375,-64.89375305175781,-57.056251525878906,-49.968753814697266
1788093368118454800,12.127454833984375,-63.525001525878906,-58.368751525878906,-50.79375076293945
1788093368128455000,12.137454833984375,-65.26875305175781,-59.812503814697266,-51.000003814697266
1788093368138454800,12.147454833984375,-64.16250610351562,-58.80000305175781,-50.51250076293945
1788093368148455000,12.157454833984374,-62.92500305175781,-59.062503814697266,-48.712501525878906
1788093368158454800,12.167454833984374,-66.0562515258789,-60.67500305175781,-48.750003814697266
1788093368168455000,12.177454833984376,-63.58125305175781,-60.67500305175781,-49.837501525878906
1788093368178454800,12.187454833984376,-64.6500015258789,-59.681251525878906,-51.45000076293945
1788093368188455000,12.197454833984375,-66.20625305175781,-59.812503814697266,-50.531253814697266
1788093368198454800,12.207454833984375,-64.20000457763672,-60.243751525878906,-51.01875305175781
1788093368208455000,12.217454833984375,-66.16875457763672,-58.218753814697266,-51.22500228881836
1788093368218454800,12.227454833984375,-64.81875610351562,-60.243751525878906,-49.95000076293945
1788093368228455000,12.237454833984375,-63.11250305175781,-59.812503814697266,-51.618751525878906
1788093368238454800,12.247454833984374,-62.775001525878906,-59.51250076293945,-49.650001525878906
1788093368248455000,12.257454833984376,-63.26250076293945,-59.94375228881836,-49.05000305175781
1788093368258454800,12.267454833984376,-64.6875,-61.687503814697266,-48.50625228881836
1788093368268455000,12.277454833984375,-64.81875610351562,-60.243751525878906,-50.250003814697266
1788093368278454800,12.287454833984375,-64.03125,-59.962501525878906,-50.85000228881836
1788093368288455000,12.297454833984375,-63.22500228881836,-59.062503814697266,-47.962501525878906
1788093368298454800,12.307454833984375,-64.9312515258789,-58.35000228881836,-50.025001525878906
1788093368308455000,12.317454833984375,-64.20000457763672,-60.22500228881836,-48.900001525878906
1788093368318454800,12.327454833984374,-66.84375,-60.39375305175781,-50.10000228881836
1788093368328455000,12.337454833984374,-63.39375305175781,-59.23125076293945,-50.23125076293945
1788093368338454800,12.347454833984376,-66.65625,-59.51250076293945,-49.14375305175781
1788093368348455000,12.357454833984375,-63.093753814697266,-59.51250076293945,-49.650001525878906
1788093368358454800,12.367454833984375,-65.75625610351562,-60.67500305175781,-48.750003814697266
1788093368368455000,12.377454833984375,-64.03125,-60.375003814697266,-48.45000076293945
1788093368378454800,12.387454833984375,-62.962501525878906,-60.67500305175781,-50.437503814697266
1788093368388455000,12.397454833984375,-63.58125305175781,-60.67500305175781,-49.38750076293945
1788093368398454800,12.407454833984374,-63.39375305175781,-59.23125076293945,-49.931251525878906
1788093368408455000,12.417454833984374,-64.48125457763672,-59.51250076293945,-50.23125076293945
1788093368418454800,12.427454833984376,-64.98750305175781,-60.39375305175781,-50.868751525878906
1788093368428455000,12.437454833984376,-64.05000305175781,-60.375003814697266,-49.06875228881836
1788093368438454800,12.447454833984375,-64.16250610351562,-59.212501525878906,-48.86250305175781
1788093368448455000,12.457454833984375,-63.243751525878906,-59.08125305175781,-50.38125228881836
1788093368458454800,12.467454833984375,-63.900001525878906,-60.806251525878906,-49.23750305175781
1788093368468455000,12.477454833984375,-62.812503814697266,-60.525001525878906,-49.23750305175781
1788093368478454800,12.487454833984375,-64.20000457763672,-60.243751525878906,-49.650001525878906
1788093368488455000,12.497454833984374,-66.2437515258789,-61.53750228881836,-47.56875228881836
1788093368498454800,12.507454833984376,-63.88125228881836,-60.525001525878906,-48.618751525878906
1788093368508455000,12.517454833984376,-62.306251525878906,-59.212501525878906,-48.13125228881836
1788093368518454800,12.527454833984375,-65.5875015258789,-60.22500228881836,-48.88125228881836
1788093368528455000,12.537454833984375,-64.48125457763672,-59.51250076293945,-49.63125228881836
1788093368538454800,12.547454833984375,-65.28750610351562,-60.806251525878906,-48.91875076293945
1788093368548455000,12.557454833984375,-65.75625610351562,-60.375003814697266,-49.35000228881836
1788093368558454800,12.567454833984375,-64.33125305175781,-59.92500305175781,-47.681251525878906
1788093368568455000,12.577454833984374,-62.775001525878906,-59.493751525878906,-46.78125
1788093368578454800,12.587454833984374,-63.13125228881836,-60.54375076293945,-50.587501525878906
1788093368598454800,12.607454833984375,-63.07500076293945,-59.493751525878906,-47.23125076293945
1788093368608455000,12.617454833984375,-64.53750610351562,-61.53750228881836,-48.95625305175781
1788093368618454800,12.627454833984375,-64.4625015258789,-58.781253814697266,-49.14375305175781
1788093368628455000,12.637454833984375,-63.281253814697266,-60.67500305175781,-50.13750076293945
1788093368638454800,12.647454833984375,-64.21875,-61.51875305175781,-47.587501525878906
1788093368648455000,12.657454833984374,-63.843753814697266,-58.80000305175781,-50.212501525878906
1788093368658454800,12.667454833984374,-63.39375305175781,-59.51250076293945,-49.181251525878906
1788093368668455000,12.677454833984376,-63.58125305175781,-60.375003814697266,-48.468753814697266
1788093368678454800,12.687454833984376,-64.16250610351562,-59.212501525878906,-49.16250228881836
1788093368688455000,12.697454833984375,-63.431251525878906,-61.23750305175781,-47.28750228881836
1788093368698454800,12.707454833984375,-64.33125305175781,-59.343753814697266,-47.962501525878906
1788093368708455000,12.717454833984375,-64.38750457763672,-61.66875076293945,-47.45625305175781
1788093368718454800,12.727454833984375,-64.81875610351562,-60.22500228881836,-48.60000228881836
1788093368728455000,12.737454833984375,-61.85625076293945,-59.64375305175781,-49.05000305175781
1788093368738454800,12.747454833984374,-64.48125457763672,-59.493751525878906,-48.11250305175781
1788093368758454800,12.767454833984376,-64.33125305175781,-59.94375228881836,-48.431251525878906
1788093368768455000,12.777454833984375,-64.96875,-60.937503814697266,-46.96875
1788093368778454800,12.787454833984375,-63.900001525878906,-60.525001525878906,-50.28750228881836
1788093368788455000,12.797454833984375,-62.19375228881836,-60.656253814697266,-48.03750228881836
1788093368798454800,12.807454833984375,-62.025001525878906,-60.525001525878906,-49.687503814697266
1788093368808455000,12.817454833984375,-63.281253814697266,-60.67500305175781,-49.837501525878906
1788093368818454800,12.827454833984374,-64.80000305175781,-59.79375076293945,-47.83125305175781
1788093368828455000,12.837454833984374,-62.04375076293945,-61.23750305175781,-47.60625076293945
1788093368838454800,12.847454833984376,-62.19375228881836,-60.656253814697266,-48.48750305175781
1788093368848455000,12.857454833984375,-64.05000305175781,-60.67500305175781,-50.13750076293945
1788093368858454800,12.867454833984375,-62.38125228881836,-62.118751525878906,-48.243751525878906
1788093368868455000,12.877454833984375,-63.91875076293945,-62.118751525878906,-48.22500228881836
1788093368878454800,12.887454833984375,-65.625,-61.25625228881836,-49.687503814697266
