frame,timestamp_s,gyro_x,gyro_y,gyro_z,gps_lat,gps_lon,gps_alt_m,speed_2d_mps,speed_3d_mps
0,0.029899999999997817,0.0803194888178763,-0.5075612353567479,0.5206389776357179,17.451262018113205,78.36332444584906,606.2137830188678,7.689911320754744,7.654603773584929
1,0.0632666666666637,0.0676180333688742,0.3349378771743657,0.5781895633654064,17.44848213408805,78.35521804566038,602.943220125786,8.27980880503149,8.196025157232743
2,0.09663333333332957,-0.0357614483491654,0.7225985090520205,0.1461696840613213,17.44658715027778,78.35084800944445,599.708297222222,7.20528541666647,7.262263888888715
3,0.12999999999999545,-0.1842385516506922,0.8385516506922258,-0.6579339723109692,17.431935,78.3710584,564.195,8.486,8.56
4,0.16336666666666133,-0.2059708910184718,0.3786226482070109,-0.7618246361364707,17.441554866666667,78.35797019666667,587.8981666666696,8.527066666666672,8.592083333333337
5,0.1967333333333272,0.003663471778431,-0.0038338658129021,0.153723819666875,17.446587857083333,78.35084450722223,599.7107777777773,7.211722222221735,7.194986111110595
6,0.2300999999999931,0.1638338658147269,-0.5052609158672463,0.7313738019170211,17.45117463545454,78.36361077090909,605.9411545454426,7.854863636363818,7.657636363636601
7,0.26346666666665897,0.1270571529996682,-0.2958182463617202,0.5958537451189877,17.44015556682926,78.35987557170732,584.4638780487627,8.563591869918637,8.52287804878046
8,0.29683333333332484,0.1578984735532899,-0.1773872914448199,0.8701810436627126,17.446588604861113,78.35084107847221,599.7380381944464,7.287854166668441,7.202638888890682
9,0.3301999999999907,-0.0014483493077328,-0.582321618743258,0.2396592119277171,17.45118132090911,78.36361031909091,605.9047090909506,7.582481818180898,7.855909090908449
10,0.3635666666666566,-0.0790273340431694,-0.2684487042952368,-0.1842669506559347,17.437725772999993,78.36318229322222,578.494386666649,8.525506666666644,8.54626666666661
11,0.3969333333333225,0.0688675896343829,0.0725239616612767,0.1971246006391244,17.441620315555564,78.3578624511111,591.1411777777889,8.484688888888966,8.523555555555662
12,0.43029999999998836,0.0035569755055125,0.2875612353578589,0.2009158679439981,17.445689749090914,78.35143308181817,596.1990181818361,4.381781818179508,4.348181818179483
13,0.46366666666668266,-0.0141995030172733,0.0789492367757854,0.0602768903095873,17.432476287719314,78.37032455087717,565.5621403509199,8.50235087719306,8.51175438596497
14,0.49703333333334854,0.0178274760384744,-0.3502449414290797,0.1972168974093844,17.446589445763887,78.35083437166666,599.7946236111096,7.180801388887477,7.238319444443098
15,0.530399999999986,0.0129073482429308,-0.4588711395104093,0.1286048988294342,17.45119528545454,78.36360931818182,605.9489909090784,7.7082181818184194,7.737000000000231
16,0.5637666666666803,-0.0613418530352744,-0.1963507277251485,-0.1530138445159388,17.436471030454545,78.36929150984848,574.083065909087,8.310334848484919,8.320916666666736
17,0.5971333333333462,-0.0271920482787473,0.3918920837763409,-0.0712673056461519,17.441552994722215,78.35795452083335,591.0453888888763,8.452924999999937,8.488027777777678
18,0.630500000000012,-0.0101171458999813,0.3130990415346117,-0.048455804047158,17.451336259615385,78.36341678269231,606.2684230769214,7.800817307692569,7.707788461538722
19,0.6638666666666779,-0.1229250976215865,0.3284061057863231,-0.386709265175705,17.448497397948717,78.35513402102563,603.026723076921,8.322492307692631,8.227538461538783
20,0.6972333333333438,0.056883209087709,-0.1573233936812535,0.1173872914447955,17.431415917348485,78.37174825666666,565.4846287878796,8.464684090909055,8.459151515151486
21,0.7306000000000097,0.157870074547569,-0.956336528222142,0.6172523961666766,17.45133483307692,78.36339169692307,606.3314307692289,7.831296153846426,7.799461538461848
22,0.7639666666666756,0.0219595314164591,-0.5172097976573239,0.2312886048991619,17.448494944743587,78.3551054702564,603.0743307692302,8.292654487179563,8.325628205128291
23,0.7973333333333414,0.0631877884275311,-0.3609336173221041,0.315406460774371,17.431943555555556,78.37105070404041,564.3871616161631,8.471484848484799,8.51797979797973
24,0.8307000000000073,0.0386155484559163,-0.0771246006368194,0.2442385516509284,17.451333301730767,78.3633666876923,606.4039423076928,7.799109615384542,7.829826923076852
25,0.8640666666666732,0.0237841675541456,0.4625772097979342,0.0189989350372446,17.448492450897433,78.3550768676923,603.1121923076923,8.281001282051266,8.298243589743576
26,0.8974333333333391,-0.0741302804404829,0.458936812214363,-0.5131434149818102,17.438064484358968,78.36272736602565,579.408078205112,8.557214102564116,8.508448717948689
27,0.930800000000005,0.008690095846645,0.5231948881790934,0.0153780617678903,17.445816538461536,78.35123423384616,596.5989538461537,4.354323076922932,4.424307692307552
28,0.9641666666666708,0.1519346822861199,0.2850550230741923,0.4574014909478168,17.446568892628207,78.35083107467949,599.7251538461541,7.120548076923265,7.106474358974541
29,0.9975333333333367,0.117571884984086,-0.7166489172887172,0.2560525381614001,17.440675423963963,78.35917753135135,585.8740018018003,8.538545945945941,8.552594594594595
30,1.0309000000000026,0.1574014909478337,-0.4654526091584031,0.4514376996806044,17.451330513076922,78.36331630980769,606.4489730769229,7.94088269230771,7.882634615384638
31,1.0642666666666685,0.0218104366348804,0.5089243876465369,0.176414625488749,17.448487416410256,78.35501949564103,603.1854564102559,8.307274358974421,8.35105128205136
32,1.097633333333306,-0.0969613063541097,0.1803407880744638,-0.3455023074186867,17.442191834285712,78.35711659333333,589.6417714285675,8.506785714285716,8.555333333333317
33,1.1310000000000002,-0.0247071352502662,0.7096911608093717,-0.2713525026624068,17.4457912,78.3512399,596.521,4.466,4.41
34,1.164366666666666,-0.0210294639686913,0.2944479943207371,-0.2217962371313953,17.446570148104573,78.35082405973856,599.7673803921575,7.084301960784883,7.092418300654177
35,1.197733333333332,0.0635001774937741,-0.4701597444080914,0.0787930422434846,17.448407336326532,78.3547576110204,603.0996802721097,8.29718095238086,8.330190476190378
36,1.2310999999999979,0.1033439829605857,-0.299957401490554,0.6289243876463074,17.429832701960784,78.3738286617647,569.0759196078452,8.414035294117648,8.42009803921569
37,1.2644666666666637,0.1580830670926132,-0.5187788427405452,0.5917784877528081,17.441077922875813,78.35860070392157,590.403762091498,8.42581176470588,8.452810457516332
38,1.2978333333333296,-0.0880812921547635,-0.603212637557497,-0.3229055733048968,17.446598372448978,78.35080453639456,599.9410680272116,7.117510204082243,7.216258503401943
39,1.3311999999999955,-0.0512034078808475,0.1470926517572526,-0.3028753993615489,17.451411104313724,78.36348833137255,606.4620588235288,7.8467725490197,7.941960784313791
40,1.3645666666666614,0.0107064252752623,1.0109478168252148,-0.0593752218665552,17.448508923986928,78.35501843202614,603.3020392156867,8.309326143790784,8.269084967320214
41,1.3979333333333273,-0.114110756123525,0.4386403975858841,-0.4373269435570103,17.44139791891157,78.35816679863945,591.0478544217775,8.532465306122464,8.430244897959192
42,1.4312999999999931,-0.0771246006390655,0.2038338658159217,-0.2761235356768426,17.4457884014,78.3512300216,596.360375999998,4.2029259999984125,4.395139999998461
43,1.464666666666659,0.0763933262335358,-1.0116435924728084,0.2496982605606067,17.446600479333334,78.35079865733333,599.9613066666659,7.086473333332662,7.191266666666015
44,1.498033333333325,0.0282854100105972,-0.9381114660989852,0.0902094426694716,17.44658228446667,78.3508071278,599.8769053333341,7.004517333333935,7.067880000000601
45,1.5313999999999908,-0.0371033013843731,0.0485623003195832,-0.0657294994672542,17.429919075199994,78.37370323760001,569.3040799999902,8.477440000000021,8.5
46,1.5647666666666566,-0.0211785587504093,0.8417252396168997,-0.1848633297834304,17.441411823133333,78.35814916573334,591.1659199999972,8.430726666666672,8.5
47,1.5981333333333225,-0.0871281505147372,0.939439119630848,-0.4981611643592513,17.4410998072,78.35857045373334,590.5861773333357,8.434042666666661,8.493146666666668
48,1.6314999999999884,-0.1304579339723109,0.6198083067092651,-0.6160809371671991,17.432153649999997,78.370768735,564.8527399999912,8.485500000000012,8.509000000000023
49,1.6648666666666827,0.0428682996091883,-0.2857507987238705,0.1549875754339678,17.44216698666667,78.35715747066666,589.7936560000061,8.452133333333325,8.44226666666665
50,1.6982333333333486,0.0820305289315607,-0.638033368832615,0.6319417820378646,17.446582075000002,78.3508011984,599.9008079999988,6.905335333332487,6.927933333332514
51,1.731599999999986,0.0702875399361022,-0.6089882854082613,0.2092438764643895,17.432188566000004,78.37072164799999,564.9574880000148,8.552519999999985,8.48939999999998
52,1.7649666666666803,0.1202484913025712,-0.828164714233875,0.2319985800485061,17.442202236333337,78.35711071733333,589.8984040000086,8.525826666666658,8.456033333333322
53,1.7983333333333462,-0.0054668086619559,0.8113596024137654,-0.1661341853044224,17.446582053333334,78.35079816,599.8851599999986,6.90793333333214,6.900799999998855
54,1.831700000000012,-0.04813631522918,1.2668583599577132,-0.2676464323754475,17.432223188200005,78.37067456439999,565.0382300000173,8.521865999999962,8.549579999999986
55,1.865066666666678,0.1095917642881859,0.6559602413912345,0.1980120695779861,17.442237392400003,78.35706403413333,590.0265266666777,8.467811999999975,8.529559999999991
56,1.8984333333333439,0.0539403620878433,-0.2978878239264166,0.3457401490962818,17.446581997666666,78.35079516866666,599.9165106666659,6.847895999999421,6.905673333332747
57,1.9318000000000097,0.040255591054566,-1.0433226837061071,0.2206176783828484,17.4514006432,78.3633298472,606.4332240000001,8.02765599999999,7.957999999999984
58,1.9651666666666756,0.0390486332977639,-0.5592829250973239,0.0757543485976033,17.448432811666667,78.354668995,603.4395666666659,8.221850000000053,8.291666666666757
59,1.9985333333333415,-0.0125381611642905,0.3722257720980317,-0.0477387291441709,17.441763693466665,78.35770866213335,588.8788186666594,8.365898666666695,8.467533333333343
60,2.0319000000000074,-0.1668583599573312,1.19228966986136,-0.6683280085194464,17.4457844312,78.35121193100001,596.1973520000003,4.032226000000157,3.959920000000156
61,2.0652666666666732,0.0712247071352458,1.3653958111467832,0.0970678026268286,17.4466308768,78.35076448400001,600.1773280000015,7.006530666667768,6.922880000001097
62,2.098633333333339,0.1357028753993922,-0.0286563720272252,0.3091409300675567,17.448570738431375,78.35504256633988,603.612994117648,8.27934313725482,8.209359477124112
63,2.132000000000005,0.0609158679446776,-0.6711395101170019,0.0971246006392693,17.4297459,78.3739208,569.167,8.551,8.54
64,2.165366666666671,0.0580262690807027,-0.2603549875751312,0.3653319133835356,17.44151936238095,78.3580049,591.5859952380918,8.52716666666667,8.458285714285728
65,2.1987333333333368,0.0506638267661021,-0.1613915512936723,0.2260986865460183,17.448585528104573,78.35506434091504,603.657487581699,8.315022222222266,8.284392156862774
66,2.2321000000000026,0.0386368477102797,0.7716719914814218,-0.0701384451547352,17.445758523061226,78.35121941489795,595.9886448979596,3.636220408163603,3.829591836735011
67,2.2654666666666685,-0.0815903443379764,1.5420234291824106,-0.6864891728797948,17.446633751156465,78.350757252517,600.2078258503399,7.046429931972588,7.030068027210694
68,2.298833333333306,-0.0277334043308269,0.847488462904178,-0.4056620518280776,17.448600427777777,78.35508606830065,603.734339869281,8.411957516339877,8.317189542483666
69,2.3322000000000003,0.0718636847709959,0.2340788072441001,0.2880937167198428,17.429804862448982,78.37383590979591,569.3195306122493,8.590828571428565,8.550367346938788
70,2.365566666666666,0.1199148029819537,-0.3375434859792906,0.4501242456513053,17.44159371435374,78.3579049607483,591.7637210884362,8.56222857142857,8.611653061224493
71,2.398933333333332,-0.0108910188145737,-1.600908768193298,0.3567625133116526,17.448615209542485,78.35510771764706,603.7164522875819,8.401665359477102,8.414954248365978
72,2.432299999999998,-0.0096059637912861,-0.4470713525027641,0.2362939297127825,17.44575787265306,78.35121379081633,595.9757387755114,3.6523061224499815,3.6005510204091733
73,2.465666666666664,-0.0277600283989054,1.2619808306705087,-0.0036208732686329,17.44664460884354,78.35074563605443,600.1731292517012,7.023020408163734,6.998503401361017
74,2.4990333333333297,-0.1625417110400516,1.1632729854440982,-0.6752502662402661,17.440924373333335,78.35880868398694,590.4676712418326,8.595337254901954,8.591823529411759
75,2.5323999999999955,-0.1740149094781221,0.8176357827473408,-0.3407028753991765,17.44575819632653,78.35121065428572,595.9855387755083,3.532726530610647,3.670408163263794
76,2.5657666666666614,0.0520979765708896,-1.6010223642157395,0.1447639332624302,17.446650448231292,78.35073970761904,600.2013149659863,7.096831292516912,7.041122448979502
77,2.5991333333333273,0.0739084132056406,-4.200567980120192,1.105005324813377,17.448645177777777,78.35515108222222,603.7388,8.499288888888897,8.444888888888894
78,2.632499999999993,0.0903088391901076,-0.7779552715659341,0.513418530350563,17.43220589583333,78.37069650520834,564.9657708333241,8.571145833333306,8.452916666666598
79,2.665866666666659,-0.0340646077384986,0.5582108626177438,-0.0227192048259665,17.442642711111105,78.35652269277779,591.0432111111003,8.647611111111079,8.647555555555474
80,2.699233333333325,0.0266506922260529,-0.1013489527874154,-0.1989882854087412,17.446575047307693,78.35077565403846,599.9274692307706,6.70414487179615,6.717897435898738
81,2.732599999999991,-0.010223642172812,0.1493929712476692,-0.0529073482435081,17.429927385,78.37365970875001,569.6530874999942,8.671,8.640499999999994
82,2.7659666666666567,-0.1428470003550166,0.3304934327314525,-0.4621654242105391,17.441994161944443,78.35736613979167,592.5141201388816,8.671,8.668305555555547
83,2.7993333333333226,0.1070287539936669,-0.9595314164002368,0.450035498757558,17.44873026794872,78.35535513589743,603.8634230769222,8.484730769230856,8.486666666666757
84,2.8326999999999884,0.1523322683707776,-0.5236634717812879,0.7164430244946676,17.429957816875,78.37361601354166,569.7202520833298,8.625108333333326,8.670145833333333
85,2.8660666666666827,-0.0279304224352592,-0.2425133120337054,-0.1675399361023569,17.442032587916675,78.35731465902778,592.5646013889034,8.677938888888923,8.677097222222226
86,2.8994333333333486,-0.0476837060704547,0.272745828896287,-0.2928115015980933,17.446575512820512,78.35076999948718,599.8332897435871,6.591109615382157,6.490012820510268
87,2.932799999999986,-0.0691799787006713,3.3691160809368075,-0.2305431309900513,17.42998820000001,78.37357237666664,569.8053166666848,8.711599999999953,8.631166666666706
88,2.9661666666666804,-0.5119985800493326,0.629712460068031,-1.5830315938921118,17.442071104166676,78.35726344513888,592.674690972239,8.65320833333329,8.679826388888925
89,2.9995333333333463,-0.2427831025916262,-3.458317358888348,-0.3387149449793976,17.440548816282046,78.35931709282052,589.7936538461441,8.679711538461577,8.703756410256412
90,3.032900000000012,0.1699254526091669,0.017763578274785,1.0253461128846495,17.4514679775,78.3632912075,606.6714499999999,8.248418750000019,8.208062500000013
91,3.066266666666678,-0.0953070642522847,0.4484629038019062,0.022406815762612,17.448364043333335,78.35422687444445,603.462688888889,8.671758333333326,8.506972222222217
92,3.099633333333344,-0.1409034433794002,-0.7791622293196925,-0.2874156904507096,17.44658562773585,78.35075933484276,599.854531446541,6.662625157232808,6.599987421383744
93,3.1330000000000098,0.0777422790202343,-0.5186368477103301,0.4195953141640042,17.451559,78.3635356,606.791,8.183,8.24
94,3.1663666666666757,-0.0107064252750931,-1.1589279375224253,0.2235569755059633,17.448388101773048,78.35427443319149,603.4947992907801,8.699828368794346,8.67305673758867
95,3.1997333333333415,-0.0955271565496304,0.2384451544201363,-0.0903798367062096,17.439283392121208,78.36102481575757,587.4031636363568,8.835206060606026,8.76927272727269
96,3.2331000000000074,-0.0858146964858922,0.2378274760377691,-0.4749520766772368,17.451556892978722,78.36350753276595,606.796178723404,8.206095744680887,8.181553191489414
97,3.2664666666666733,-0.1571458998934514,4.17850195243251,-0.6294639687618888,17.448384716879435,78.35424253234042,603.5191460992904,8.571709219858207,8.699801418439788
98,3.299833333333339,-0.224263400780866,2.0928292509767896,-0.8506389776361516,17.437224556666663,78.36380136666666,583.5426999999938,8.765333333333349,8.813666666666634
99,3.333200000000005,-0.1449627263045163,-1.3830031948893364,-0.1947603833859785,17.45155468,78.36347964255319,606.7617999999993,8.188548936170298,8.202212765957519
100,3.366566666666671,0.367234646787314,-0.0473411430588228,1.2045864394747192,17.44838151,78.35421080851063,603.5585999999993,8.613796453900811,8.571375886524912
101,3.399933333333337,0.1015796947106362,1.6881256656014665,-0.136261980830851,17.433736476666667,78.36850407,576.9866333333333,8.763533333333333,8.781333333333334
102,3.4333000000000027,-0.2941214057507809,-0.7398296059641678,-1.1466027689030276,17.44573562829787,78.35119665382979,595.9445382978737,3.433106382979892,3.086638297873559
103,3.4666666666666686,-0.2247071352502662,0.9449769258075968,-0.5186368477103301,17.446717531205675,78.3506798964539,600.453297872342,7.337716312058059,7.161631205675137
104,3.500033333333306,-0.0643858714944771,-0.0845935392262947,-0.0616524671635694,17.42986644888889,78.37373018046297,568.9134185185198,8.862800000000064,8.738935185185259
105,3.5334000000000003,0.0323322683704747,0.1122470713527653,0.1917358892432544,17.451551226666666,78.36342600500001,606.7492916666655,8.23940000000018,8.215750000000192
106,3.566766666666666,0.1209655662047682,0.0735463258794136,0.4373020944250833,17.448442009444445,78.35434234708333,603.6037881944434,8.68985000000015,8.695395833333494
107,3.600133333333332,0.0558040468583719,0.5095669151580673,0.2700212992544746,17.43398730785185,78.36785196251853,576.4714074074078,7.385082962962895,7.4752296296295615
108,3.633499999999998,-0.0035143769969188,-0.1741214057503265,-0.0713525026628668,17.451357351086962,78.36364861195652,606.4192391304443,8.246108695652032,8.236086956521596
109,3.666866666666664,-0.0442314518990636,-0.6613418530339996,0.148555200568004,17.435438186956524,78.3712436631884,579.2079971014549,8.653762318840496,8.642289855072379
110,3.7002333333333297,0.0334753283633874,-0.3787184948529607,0.4853035143769779,17.441565548910262,78.35799822961538,588.414642948727,8.896406410256533,8.745750000000093
111,3.7335999999999956,-0.0023855165069188,0.3171884984025258,0.1894355697550541,17.451247090270275,78.3637044827027,606.2432270270357,8.191508108107957,8.24908108108095
112,3.7669666666666615,-0.1542776002839852,0.3515512957046905,-0.5581114660986527,17.43144343252253,78.37315184855855,572.3886855856008,8.775875675675415,8.754090090089864
113,3.8003333333333273,-0.0793397231096798,-0.3793042243534025,-0.1173233936811063,17.446602837179487,78.35073045641025,599.8485641025653,6.873961538462554,6.963333333334335
114,3.8336999999999932,-0.0141427050054482,0.4090521831746513,0.1751437699676896,17.451061252500004,78.3637964375,605.8832000000067,8.255174999999872,8.196249999999884
115,3.867066666666659,-0.112516861909881,0.6759957401473426,-0.262520411785618,17.434944153666667,78.36686754666667,579.3561799999989,9.00828666666666,8.89066666666666
116,3.900433333333325,-0.1149023784165577,0.1464252751146503,-0.4386439474611385,17.44660304576923,78.3507275724359,599.8818147435904,6.894600000000658,6.86617307692372
117,3.933799999999991,0.1039829605965415,0.5329073482433708,0.3922470713530833,17.432004829473684,78.37095995578947,564.9579578947363,8.601336842105232,8.61557894736838
118,3.9671666666666567,0.1461838835637216,-0.0634007809715957,0.4895278665238967,17.438787614942523,78.36169044310344,586.5867586206826,9.032620689655111,9.043218390804569
119,4.000533333333323,0.1009016684415831,-0.372055378062471,0.5240894568690503,17.446603121666666,78.35072459166666,599.8739320512824,6.929676923077203,6.886205128205406
120,4.0338999999999885,0.1994249201277323,-0.6819382321623589,0.6323109691159988,17.43189,78.371107848,565.1869099999999,8.590979999999991,8.616099999999992
121,4.067266666666683,0.1458004969819483,-0.7111537096192834,0.3735889243868945,17.44081333228071,78.3589629305263,590.4329122807198,9.03279298245627,9.0651929824563
122,4.100633333333349,-0.0725860844869039,-0.4233493077775202,-0.2117323393675566,17.44157913138364,78.35798564603775,588.4215943396031,8.916962264150664,8.944031446540563
123,4.133999999999986,0.0643237486686718,0.6014909478151665,0.1480298189566815,17.451632799999995,78.36353399999999,606.8229999999973,8.16900000000066,8.250000000000526
124,4.16736666666668,-0.1399858004969201,0.0229605963786385,-0.2832161874325114,17.448451607801417,78.35423243822694,603.6567163120559,8.942112765957667,8.867638297872517
125,4.200733333333346,-0.0989527866523883,-0.2406993255222225,-0.3895278665247536,17.441556431949685,78.3580179145912,588.3787685534575,9.027157232704374,8.91894339622639
126,4.234100000000012,-0.1230883919064374,0.3781895633660251,-0.575889243877182,17.445559090909086,78.35139740090911,595.5976545454464,3.3143727272744528,2.974727272729111
127,4.267466666666678,-0.0530209442669065,0.9106709265163412,-0.1949165779195558,17.440561653333337,78.35930178703703,589.9688574074129,9.11432777777783,9.139703703703756
128,4.300833333333344,0.032436989704863,0.0120695775655998,0.0820021299244461,17.44883794528302,78.35533106981131,604.0508207547175,8.840952830188565,8.882044025157123
129,4.33420000000001,0.1018104366346753,-0.2368051118203284,0.3940362087326035,17.432105659090908,78.3708297709091,564.833954545456,8.561800000000128,8.642545454545541
130,4.367566666666676,0.042449414270568,-0.6670713525032574,-0.0278878239259998,17.437729017733343,78.36311280293332,584.648165333349,9.13330666666683,9.068053333333486
131,4.400933333333342,-0.0046432374867009,0.0928221512249489,-0.0724458643948863,17.448853030314467,78.35535192125786,604.043709433963,8.863550943396021,8.841333333333152
132,4.4343000000000075,0.1146112886050605,-0.173610223642373,0.4958253461132764,17.445552930909088,78.35139402909091,595.5163999999921,3.683654545456138,3.5101818181834603
133,4.467666666666673,0.1439829605965317,-1.4676606318780343,0.2920127795531951,17.430435433333326,78.37292197142858,570.9679999999872,9.008047619047447,8.996190476190344
134,4.501033333333339,-0.0871760738373119,-1.392767128149471,-0.2709176428828014,17.44148826867924,78.35811474251572,588.1515817609975,9.080873584905444,9.040289308175929
135,4.534400000000005,0.0055378061761735,-0.4238977635787483,-0.0402555910561582,17.445550099090905,78.35139249272727,595.3828272727194,3.648336363637989,3.688636363637966
136,4.567766666666671,0.1842882499115332,0.6578061767830382,0.440859069932757,17.433337823257574,78.36873421106061,575.515252272725,7.763811363636849,7.745719696970177
137,4.601133333333337,-0.0010649627262137,-0.7226837060715466,-0.1716009939648671,17.44661295044025,78.35070180641509,599.8206679245263,7.136339622639768,7.219132075469974
138,4.634500000000003,-0.0169329073482996,-0.1903088391900362,-0.0519701810438862,17.432303188297876,78.37056488510638,565.2354361702259,8.623117021276828,8.519148936170511
139,4.667866666666669,0.0622364217251465,0.5081292154776084,0.0867873624422234,17.44297974070922,78.356096104539,591.8911432624094,9.09805957446805,9.129687943262365
140,4.701233333333306,-0.0334753283634933,1.5321618743345156,-0.1388711395100867,17.43369767659091,78.36821745598485,576.1899765151518,7.6439333333332655,7.618174242424169
141,4.7346,-0.1403194888178462,0.9323961661341316,-0.6467305644301825,17.43234000255319,78.37051531957447,565.3594297872272,8.571004255318995,8.62855319148924
142,4.767966666666666,-0.0492367767127811,0.3299964501239744,-0.2149449769256865,17.44301747787234,78.35604639702127,591.9654418439659,9.182963120567246,9.104205673758765
143,4.801333333333332,0.0373446929355978,-0.2364217252385269,0.2464323748664074,17.429605691919193,78.37403022424243,569.3838181818167,9.105686868686696,8.946060606060476
144,4.834699999999998,0.1047284345048994,-0.2104792332280429,0.261171458999251,17.451617429148936,78.36333791893618,606.7597382978729,8.099640425531755,8.109808510638151
145,4.868066666666664,-0.0422435214768269,-0.074930777422894,-0.1423358182463487,17.44842991858156,78.35400568822695,603.6012638297875,9.131167375886406,9.054014184397056
146,4.90143333333333,0.0135392261270872,0.4924174653900691,-0.0378132765356907,17.435579697849466,78.3659971596774,580.6616397849544,9.217249462365707,9.215666666666744
147,4.934799999999996,0.0630457933972382,-0.5193610223644235,-0.0558892438764817,17.445710699148936,78.35116288,596.2207234042551,3.852399999999777,3.995829787233825
148,4.9681666666666615,0.1632587859423212,-1.0052538161164093,0.4935392261268954,17.44678673865248,78.35059898333334,600.6719787234042,7.956499999999938,7.99273049645384
149,5.001533333333327,0.0842456514022047,-0.2355129570466358,0.600354987575516,17.43857977777778,78.36196495333334,586.27608888889,9.29153333333335,9.300222222222237
150,5.034899999999993,-0.0266453674120625,0.1740362087325824,-0.3230670926514675,17.43245067851064,78.37036662361703,565.5599659574481,8.553402127659606,8.519914893617054
151,5.068266666666659,-0.0944834930777683,-0.6293929712465511,-0.4877387291445097,17.44313092255319,78.3558974880851,592.2149631205696,9.235643971631264,9.258241134751836
152,5.101633333333325,0.1421370252041622,-0.4230120695764133,0.4417731629395718,17.448925800555553,78.35540330271604,604.0659419753088,8.883495679012285,8.940104938271544
153,5.134999999999991,0.0662406815759522,-0.0935037273699343,0.2178913738008854,17.4295608,78.3740798,569.426,9.116,9.04
154,5.168366666666657,-0.1840681576147682,-0.6161803336891718,-0.862747603835432,17.4423649681884,78.3568812418116,593.3528014492641,9.438060869565064,9.373666666666509
155,5.201733333333323,-0.0846290379835747,0.2548810791631121,-0.5752928647488711,17.448940600987655,78.3554237491358,604.0725864197512,8.88539876543285,8.881839506173527
156,5.2350999999999885,-0.0034930777421196,0.1376996805129364,-0.0342279020233494,17.432205309782603,78.37070049173914,564.9347043478056,8.533430434782,8.482347826086368
157,5.268466666666683,0.0814909478172266,0.5233652822139216,0.2683138090176873,17.443119473913047,78.35591630202899,592.196721739137,9.344385507246574,9.265739130434977
158,5.301833333333349,-0.0679801206957402,0.204295349664028,-0.4611288604893985,17.448955481172842,78.35544405709877,604.0708734567909,8.95609876543181,8.880987654320705
159,5.335199999999986,-0.0691799787008289,0.4177635782744783,-0.4212140575083843,17.432243123913047,78.37065028130435,565.0184521739185,8.439313043478437,8.534869565217553
160,5.3685666666666805,0.1495065672701232,0.7930280440182289,0.4657082002129852,17.4431580134058,78.35586572891305,592.2877231884152,9.325705797101756,9.34727536231912
161,5.401933333333346,0.0525523606674134,0.3486119985808129,0.0825275115376348,17.44037011481481,78.35955943604938,589.657182716042,9.486982716049289,9.448419753086304
162,5.435300000000012,-0.1056869009584751,-0.0781043663462821,-0.4966347177850715,17.43228084304348,78.37059986869565,565.1299043478342,8.521741304348083,8.447956521739396
163,5.468666666666678,0.0177493787713556,-0.1906993255232337,-0.0811501597457963,17.443196530434786,78.35581495362318,592.3687101449397,9.382746376811976,9.33289855072503
164,5.502033333333344,0.1094426695064524,0.6119275825344146,0.3280351437687506,17.440338598765425,78.35960151166668,589.5852438271511,9.514037037036902,9.488617283950491
165,5.53540000000001,0.183088391906135,0.1703088391916121,0.468072417465117,17.445679960869565,78.35115736173913,596.38171304348,3.8893652173929847,3.9306086956538624
166,5.568766666666676,0.1493858714946589,-0.7806460773878494,0.4682783102593544,17.446819505072465,78.3505619118116,600.8622760869589,8.09066376811823,8.152217391306646
167,5.602133333333342,0.1195030173943734,-0.3393681221153223,0.3130138445154032,17.44030697555555,78.35964375382717,589.5702259259145,9.446670370370208,9.512148148147984
168,5.6355000000000075,0.0209797657079247,0.2220447284360635,-0.1135250266249216,17.451691815217387,78.36338857608696,606.5889021739116,7.743597826087631,7.75065217391372
169,5.668866666666673,0.1531984380546333,-0.1779481718142616,0.3099751508697518,17.448429570724638,78.35381742028986,603.5793739130435,9.11815942028988,9.12884057971017
170,5.702233333333339,0.2228257011005005,-0.873952786652688,0.820544905928364,17.441327221481483,78.3583498308642,587.7219351851897,9.150080246913724,9.14241975308657
171,5.735600000000005,0.2181895633653141,-0.9115228966981584,0.6291799787008654,17.44568122347826,78.35114908173912,596.4393217391294,3.9279347826076463,4.083173913042454
172,5.768966666666671,0.0241107561234136,-0.2836847710329005,-0.0200070997518883,17.446833679130435,78.35054746623189,600.9061028985503,8.09514130434738,8.152456521738692
173,5.802333333333337,0.0754703585373797,-0.0506212282568608,0.1939652112173337,17.441305003703704,78.35838130493826,587.6749259259282,9.12985185185192,9.149876543209944
174,5.835700000000003,0.0772310969117358,0.0697337593182959,0.253013844516135,17.42978584891304,78.3737563097826,569.9549543478224,9.21139565217386,9.235630434782568
175,5.869066666666669,-0.0427121050761324,-0.4984025559102888,-0.1452751153703534,17.442653413768117,78.35649667608696,593.9767782608694,9.563921739130432,9.50401449275362
176,5.902433333333306,-0.0423926162582132,-1.0043237486690404,-0.1253674121403546,17.44021177160494,78.35977044320988,589.4206345679011,9.523296296296294,9.441234567901232
177,5.9358,0.1021938232163133,-0.3187220447281887,0.3457720979768517,17.43246950521739,78.37034865913043,565.6206086956507,8.383704347826034,8.442086956521692
178,5.969166666666666,-0.0221512247072369,0.3002839900604374,-0.1743343982968659,17.443388964492755,78.35556135036231,592.8398297101475,9.37237318840589,9.36329710144936
179,6.002533333333332,-0.1028895988642315,0.5295136670232844,-0.6754419595326782,17.440179984197528,78.35981262209877,589.3102135802449,9.57027283950615,9.52251851851849
180,6.035899999999998,-0.1262193823214559,-0.0186794462185241,-0.5988711395099175,17.445684688043478,78.35113543586957,596.7237695652176,3.998728260869772,4.043282608695854
181,6.069266666666664,-0.0580901668440349,-0.0861483848062554,-0.1129286474971392,17.446855785507246,78.35052504347826,600.978744927537,8.289246376812422,8.243130434783419
182,6.10263333333333,-0.0697905573304885,-0.651806886758844,-0.5772168974085061,17.440277516,78.35968137,589.4910666666638,9.617853333333292,9.5705333333333
183,6.135999999999996,0.3429179978700745,3.434504792332268,0.6230031948881789,17.4322176,78.3706916,564.998,8.292,8.32
184,6.169366666666662,0.0059069932552437,1.718253461129276,-0.4907064252750829,17.443381122740735,78.35557427555557,592.7872429629525,9.306346666666284,9.41739259259218
185,6.202733333333327,-0.1559389421369922,-1.280851970181106,-1.0596947106849222,17.446631060242424,78.35063698933334,600.076640000001,7.260244848485837,7.508121212122157
186,6.236099999999993,0.0080085197017656,0.5706496272628896,-0.2046219382323174,17.451771994,78.36350059311111,606.4492111111108,7.545762222222379,7.554688888889043
187,6.269466666666659,-0.150571529996452,0.2997799077028971,-0.1335747248845234,17.448433325333337,78.35368849451852,603.5166518518527,9.134757037036591,9.11921481481438
188,6.302833333333325,-0.1470003549876008,0.5417110401145404,-0.4293929712464858,17.44663088969697,78.35063360969697,600.0802939393958,7.193809090911016,7.250393939395803
189,6.336199999999991,-0.0252609158678496,0.3799787007460841,-0.4011927582529425,17.432294621777768,78.37058937822222,565.1884622222042,8.28599111111046,8.35591111111047
190,6.369566666666657,0.001597444089693,0.7208448704290219,-0.1438977635779159,17.443459405037032,78.35547064496296,592.9599096296187,9.285508148147752,9.34208148148109
191,6.402933333333323,0.0728576499824714,-0.7091231806877751,0.0565282215123952,17.441282425212126,78.35841907187879,587.5449830303122,9.0992072727276,9.121696969697314
192,6.436299999999989,-0.0402981895636742,1.933929712463404,-0.3627902023424091,17.42959806318181,78.37398886022729,569.7389795454408,9.34759318181796,9.361840909090796
193,6.469666666666683,-0.1782747603835826,1.0363507277275732,-0.7944621938240879,17.443107468181825,78.3558885810606,594.7617045454713,9.747234848485116,9.566590909091047
194,6.503033333333349,-0.0295615903443439,-0.0368033368837901,-0.2614217252404972,17.439961170714277,78.36010274470239,588.919276785702,9.688378571428403,9.51072023809513
195,6.536399999999986,0.1452183173587965,-0.4629605963810658,0.5142066027681467,17.451761839090906,78.36340872,606.4167727272716,7.668327272727877,7.610727272727956
196,6.5697666666666805,0.0248917287895943,-0.026624068159703,-0.0644941427048103,17.44834501659091,78.35335868,603.394814393939,9.197127272727451,9.339727272727476
197,6.603133333333346,-0.0320198793043357,0.7704082357113656,-0.4972239971604587,17.449161192261904,78.3557510272619,604.1207940476196,8.813371428571152,8.952928571428274
198,6.636500000000012,0.1980830670925064,-0.4208732694354075,0.6095846645363441,17.429666025000007,78.37389118522727,569.8625795454669,9.442431818181964,9.432727272727362
199,6.669866666666678,0.1059140930067853,-0.2307845225418577,0.2769187078452021,17.44319454,78.35577209939393,594.8595212121267,9.738181818181882,9.614727272727311
200,6.703233333333344,0.1230599929004199,0.2207099751500009,0.4722754703590023,17.441056984285712,78.35872778541668,586.9352821428499,9.163775595237784,9.093315476190206
201,6.73660000000001,-0.0005537806173038,-0.5233226837064481,-0.1067092651744124,17.45175370465116,78.36334408325581,606.3624093023237,7.678125581396344,7.631116279070795
202,6.769966666666676,-0.0557969471069563,-0.373688320908619,-0.3216826411078357,17.4482560244186,78.35304953542635,603.2709488372079,9.353442635659622,9.361527131783678
203,6.803333333333342,0.0739794107203846,-0.3853745118943318,0.1750088746883971,17.4492363,78.35592597660819,604.1561169590647,8.887883040935485,8.899356725146008
204,6.8367000000000075,0.2898402555911085,-0.1759105431306639,0.9546751863685778,17.43249819697674,78.37031908186047,565.6802906976702,8.379074418604498,8.255720930232382
205,6.870066666666673,0.0600070997514243,-0.0672346467874096,0.1136812211568809,17.44418591953489,78.35449288387596,594.6278139534984,9.431288372093386,9.48175193798492
206,6.903433333333339,-0.0739439119630848,-0.2982818601347652,-0.4905147319843536,17.449250734385966,78.3559452802924,604.13119883041,8.892983040935395,8.888391812865185
207,6.936800000000005,-0.0097550585730284,0.7070074547390677,-0.254952076677694,17.429776108372092,78.3737343739535,570.1345488372078,9.437204651162771,9.415581395348823
208,6.970166666666671,-0.0187078452254376,-0.1999645012413947,0.0049698260558579,17.443648649224805,78.3551647375969,595.5995232558081,9.779406976744106,9.648372093023204
209,7.003533333333337,0.0254313099041852,-0.9122186723467368,0.0703727369541186,17.44659385122807,78.35062845017544,599.3010187134508,7.010790643275392,6.882210526316323
210,7.036900000000003,-0.0116506922256064,0.0919488817894947,0.0326517571888674,17.42981125023256,78.37368415906975,570.1959302325591,9.494509302325593,9.439209302325594
211,7.070266666666669,0.0198935037273356,-0.3345118920850394,0.0638267660633976,17.44369364589147,78.35510482310077,595.6632325581361,9.735835658914697,9.780635658914685
212,7.103633333333306,-0.0213631522897264,0.3355697550592484,0.0330564430242413,17.44093123994253,78.35890238540229,586.5071798850596,9.186139655172498,9.20744827586216
213,7.1370000000000005,0.04643237486675,0.2847710330142101,0.3090521831732147,17.451844,78.3635291,606.459,7.454,7.48
214,7.170366666666666,0.0238196663115289,-0.1319772807949696,-0.1241533546330266,17.44817309699187,78.3527100804065,603.0531585365852,9.432399186991976,9.368065040650508
215,7.203733333333332,-0.1670855520056516,-0.5635356762515913,-0.5018530351436696,17.449303731864408,78.35603324338983,604.0958327683618,8.888378531073341,8.779389830508368
216,7.237099999999998,0.0168477103300592,0.6894142704998555,-0.2517997870073617,17.445632174285716,78.35112286547619,595.2019309523814,3.378080952381453,3.4353809523814625
217,7.270466666666664,-0.031451899183451,0.4547532836342136,0.0122683706075198,17.44699162761905,78.35041064603175,600.8512253968256,8.410092063492254,8.567492063492258
218,7.30383333333333,0.0333333333332153,0.8949946751866046,0.2365637202693042,17.44660590316092,78.3506110617816,599.2522040229882,7.026988505746775,7.101235632183544
219,7.337199999999996,0.002513312034116,-0.1571884983993693,-0.1723961661338903,17.432349052380953,78.37052425809524,565.2742190476249,8.290166666666904,8.27680952380975
220,7.370566666666662,-0.023152289669852,1.1166063187796234,-0.0369187078450679,17.44431974126984,78.35431775031746,594.8402634920675,9.48580555555572,9.412865079365234
221,7.4039333333333275,-0.1383315583953916,1.153241036562766,-0.479162229321711,17.440869855402298,78.35898858988506,586.3195563218427,9.140593103448422,9.093862068965652
222,7.437299999999993,-0.105346112886046,1.237699680511371,-0.3572523961664232,17.429535769069762,78.3740403083721,569.8270279069628,9.26925581395323,9.353069767441673
223,7.470666666666659,0.0140575079871731,0.0340788072413288,-0.0029108981187679,17.443457351162788,78.35542263953488,595.1887984496109,9.74259689922478,9.694496124030987
224,7.504033333333325,-0.032410365637182,-0.0629463968761131,-0.057649982250517,17.44662278403509,78.35059492181287,599.320997076024,7.141946198830965,7.251742690058995
225,7.537399999999991,-0.1276677316294006,-0.752545260915758,-0.4355271565495314,17.432427092558136,78.3704194223256,565.4587488371963,8.338223255813412,8.294883720929667
226,7.570766666666657,0.0428044018460864,-0.0586155484552362,0.0659353922617949,17.444121488449607,78.35458880131785,594.2999643410672,9.524679844960495,9.536434108526354
227,7.604133333333323,0.0968406105787846,0.5905431309917055,0.4402271920483402,17.4492716697076,78.35584789064328,604.1032783625717,8.89782807017615,8.897730994152779
228,7.637499999999989,-0.044195953141876,0.532800851968267,0.05197018104184,17.445641858139535,78.3511024,595.2645930232538,3.612325581393604,3.4848837209284507
229,7.670866666666683,-0.2135179268724502,0.0838054668086323,-0.5441817536382044,17.44699375131783,78.35039502666667,600.7763007751955,8.505586046513212,8.48212403100937
230,7.704233333333349,-0.1487752928648114,-0.5056088036912327,-0.627653532126849,17.439722817426897,78.36041455959065,588.3848450292319,9.58438538011681,9.577906432748383
231,7.737599999999986,-0.1852609158673256,-0.4352715654969772,0.0429392971233409,17.44564396090909,78.35109731863636,595.2613500000032,3.7509272727300704,3.6456363636391846
232,7.770966666666681,0.0454100106500136,1.913759318424256,0.4975434859790995,17.44697089257576,78.35040321613637,600.6750916666683,8.473827272728762,8.407969696971199
233,7.8043333333333464,-0.2108626198081916,0.7021654242119122,-0.7436989705352968,17.439876149999996,78.36020904166668,588.6792499999917,9.53149999999978,9.58583333333318
234,7.837700000000012,-0.2604685835995587,-0.1072204472844545,-0.8251544195952955,17.45182015613636,78.36331625681818,606.5986204545432,7.57467727272858,7.6856363636375375
235,7.871066666666678,0.0264678736243451,0.5538516151932891,0.2205182818598466,17.448395598636363,78.35319933181817,603.2915287878774,9.46596060606139,9.384303030303734
236,7.904433333333344,0.0236208732695691,1.3273908413216406,0.401682641108276,17.44106989708333,78.35872288244049,586.7514511904725,9.2954529761903,9.22047619047603
237,7.93780000000001,-0.22756123535666,0.6131629392991862,-0.7000638977631011,17.429698667555556,78.37380717333333,570.1817999999988,9.0230133333333,9.037955555555518
238,7.971166666666676,-0.109584664536574,0.2199858004971544,-0.2695420660272749,17.443048151851855,78.35597157777778,594.406000000005,9.732611111111256,9.786851851852004
239,8.004533333333342,-0.1317713880009744,0.6865317713882068,-0.1336741214052974,17.440003634666663,78.36003778133333,588.8808739393902,9.598369696969597,9.612109090908977
240,8.037900000000008,-0.1535250266241586,0.4320127795549673,-0.2733759318428589,17.432611966,78.37017089800001,565.9194200000014,8.280560000000067,8.313600000000063
241,8.071266666666673,0.0208732694356181,0.6539013134538902,0.2375434859779196,17.443792246222227,78.35504089422221,593.4439540740825,9.598914074074475,9.55928888888927
242,8.10463333333334,0.0069222577209616,0.2826127085550809,0.0728860489881924,17.449216947916668,78.355571465,604.0250041666673,9.008945833332987,8.913208333332978
243,8.138000000000005,-0.0670926517571885,-0.463258785942492,-0.0702875399361022,17.4456137,78.3510964,595.574,3.838,3.89
244,8.171366666666671,0.0800567980120516,0.0168264110757867,0.454164004259795,17.446964291666667,78.3503918325,600.6646916666685,8.405441666668352,8.53858333333505
245,8.204733333333337,0.0234149804755375,-0.3030315938931984,0.1658217962364672,17.43867124283688,78.36181610184397,586.4921702127635,9.388920567375816,9.526638297872267
246,8.238100000000003,-0.019233226837202,-0.0157401490944891,0.1461554845576375,17.445616265227272,78.35109127999999,595.5593181818186,3.715922727273186,3.853681818182269
247,8.271466666666669,0.0117713880015005,-0.0398154064597648,0.2390770323041657,17.446972696060605,78.35038390666666,600.670484848484,8.361472727271899,8.418848484847672
248,8.304833333333306,-0.1110046148384816,0.6212282570105909,-0.2450834220803401,17.43655644868421,78.36463885614035,582.658749999999,9.248754385964885,9.27714912280699
249,8.3382,-0.0306283280084564,0.0005111821074994,0.0286687965924614,17.451905459545454,78.3634683040909,606.5583681818175,7.651668181818501,7.470772727273082
250,8.371566666666666,0.1462193823216477,0.0254455094064889,0.8152289669865914,17.448478627045453,78.35332551992424,603.2831265151518,9.264643181818052,9.268022727272584
251,8.404933333333332,0.1370110046147895,-0.4405963791269382,0.47197728079507,17.4331250108046,78.36921792643679,576.4645356321874,9.018526436781714,9.062919540229991
252,8.438299999999998,-0.0807667731629213,-0.234249201278196,-0.1673482428114219,17.451901588636364,78.36343825636364,606.4856886363626,7.347700000000583,7.654522727273205
253,8.471666666666664,-0.0614128505502307,-0.6585019524316649,0.0,17.44847468030303,78.35328993636364,603.2256136363636,9.316333333333372,9.26977272727276
254,8.50503333333333,0.1919133830313774,-0.2781540646076486,0.8546822861193639,17.429592879537037,78.37395294092592,569.2384277777794,8.797635185185394,8.775342592592786
255,8.538399999999996,0.0865601703942158,0.269478168264887,0.6270926517580666,17.445623874545454,78.35107512636364,595.5758909090886,3.82099999999794,3.875545454543373
256,8.571766666666662,-0.0797870074549,-0.6911537096208653,-0.1241107561243026,17.446998126212122,78.35035994219697,600.6552075757571,8.4089166666663,8.50896212121175
257,8.605133333333328,-0.1967625133120979,-0.6759389421372143,-0.51301384451545,17.430144386518517,78.37326592414814,568.436517037037,8.627376296296289,8.693614814814806
258,8.638499999999993,-0.0634717784876657,-0.4988285410017333,-0.01075612353502,17.445627358139536,78.35106939534884,595.5474999999982,3.794232558137864,3.840348837207628
259,8.67186666666666,0.0377990770323278,0.0160312389072637,0.3516506922255432,17.44703931131783,78.35033501829457,600.7860666666639,8.481085271315353,8.534961240307599
260,8.705233333333325,-0.002960596379155,-0.2925665601704201,0.040894568689965,17.430513731172837,78.37280581641974,567.8922018518524,8.544001851851911,8.563395061728455
261,8.738599999999991,-0.0733972310969449,-0.4935037273697018,-0.2465175718850982,17.445340561081085,78.35145348756757,594.9375459459519,3.870718918917776,3.811243243242078
262,8.771966666666657,0.005062122825692,-0.8361945331912725,-0.0494071707490017,17.430657063423432,78.3723792572973,571.7224621621725,8.303976576574595,8.32927027026825
263,8.805333333333323,0.1340433084843806,0.3124600639000154,0.5578274760388472,17.449364508187134,78.35584903391813,604.1154444444435,8.829327485380597,8.705555555556046
264,8.838699999999989,0.125793397230048,-0.0336954206597432,0.3983812566523272,17.445195927500002,78.35165431749999,594.7673500000053,3.911424999999014,3.922749999999003
265,8.872066666666683,-0.157231096911486,-0.3590628328004401,-0.6248207312739105,17.436645501777786,78.36451297644443,582.7888755555729,9.046186666667191,9.175111111111722
266,8.905433333333349,-0.093390131345428,-0.6445722399697941,-0.4518849840249169,17.44937866391813,78.3558689488304,604.1369432748554,8.62880409356641,8.822654970759364
267,8.938799999999986,0.0279872204473792,-0.4223642172528538,0.1068370607030685,17.44491564210524,78.3520482389474,594.4498736841746,4.05385263158559,4.00421052632251
268,8.97216666666668,0.173730919417813,-0.5261980830686944,0.4440894568685736,17.440769970138902,78.3590127736111,590.1927500000268,9.413812500001,9.269305555556365
269,9.005533333333346,0.0744053958114262,-1.2188995385149672,0.130820021299285,17.440950684912277,78.35889620163744,586.3070596491153,9.171053801169265,9.027426900584512
270,9.038900000000012,0.0385090521839299,-4.6451544196036245,-0.3758253461129127,17.444132804999995,78.353157782,593.293479999994,4.442980000001051,4.291100000001089
271,9.072266666666678,-0.2253319133823955,-2.6267234646852957,0.0057223997171351,17.44264814000001,78.35650921272726,593.5709656565847,9.460830303030948,9.539777777778484
272,9.105633333333344,0.0877529286475844,-0.038516151934997,0.7258359957403874,17.4397409187931,78.36038326758622,588.3582867816019,9.247591954022724,9.346097701149157
273,9.13900000000001,0.1782747603834011,-1.7629392971235194,0.3884984025557761,17.4455977,78.3510633,595.68,4.172,4.03
274,9.172366666666676,0.0494355697550193,-0.8474689385875649,-0.0265033723819564,17.447074651666668,78.35029880611111,600.837533333333,8.566072222221951,8.574222222221943
275,9.205733333333342,0.0020305289320046,-2.11038693645818,-0.3569897053590367,17.439710533218392,78.36042337137931,588.2889241379311,9.271872413793105,9.24254022988506
276,9.239100000000008,-0.3316506922259326,-1.4376996805137006,-0.9062406815772088,17.445600345714286,78.3510579007143,595.6954428571433,3.992778571429029,4.183166666667103
277,9.272466666666674,0.3816968406100124,-0.84702875399958,1.9057720979743744,17.447083732380953,78.35029070571429,600.8482095238097,8.590228571428746,8.57644444444461
278,9.30583333333334,0.0750088746893081,1.8470713525021896,0.7550940717067951,17.439680162068964,78.36046357270115,588.2319310344809,9.306155172413732,9.267557471264311
279,9.339200000000005,-0.4108200212992942,-1.2659850905244867,-1.817039403620457,17.432442796666667,78.37040319809523,565.4255952381011,8.099566666666918,8.167666666666921
280,9.372566666666671,0.0376002839902288,-1.1954277600277394,0.1924742634017762,17.444437557222223,78.35418668031745,594.7207341269882,9.361938888889062,9.446722222222398
281,9.405933333333337,0.275882144125018,-0.6023855165078353,1.1221867234646934,17.446662004827587,78.35050275310346,599.4747586206889,7.406048275861467,7.401333333332706
282,9.439300000000003,-0.061490947816496,2.108413205537012,-0.4889669861548541,17.42940927285715,78.37414408785713,569.8541928571506,8.651907142857405,8.697071428571663
283,9.472666666666669,-0.1537806176784684,2.2013489527877264,-0.6123535676255871,17.443865142857145,78.35489017063492,595.6791984127045,9.53135714285735,9.483571428571617
284,9.506033333333306,0.1182534611283171,-0.6885623003202719,0.0882996095121141,17.439619219942525,78.36054400902299,588.1008379310289,9.274071839080271,9.231126436781432
285,9.5394,0.1146751863682252,0.8152076677305542,0.3457720979758346,17.445606705581394,78.35104043581396,596.1133906976763,4.358037209303979,4.439860465117927
286,9.572766666666666,-0.0367696130636373,1.1836066737671993,0.0385374511889174,17.447075304496124,78.3502843316279,600.8173147286833,8.531974418605587,8.599054263566824
287,9.606133333333332,-0.0084345047925109,0.6629747958835316,-0.2648917287899426,17.4466794148538,78.3504862134503,599.6256456140353,7.409998830409507,7.446748538011848
288,9.639499999999998,-0.0197018104364955,0.8603833865833062,-0.0431309904152809,17.432560515116275,78.37024512790698,565.7359418604552,8.142104651162372,8.187674418604242
289,9.672866666666664,-0.0339368122116403,1.5797373091940463,0.3776783812562433,17.444279897209306,78.35440449689922,594.2939286821746,9.350288372093194,9.367147286821872
290,9.70623333333333,-0.040227192048282,0.5298615548460177,-0.1041320553780719,17.439738660233917,78.36038416233919,588.2843953216365,9.281787719298215,9.256350877192952
291,9.739599999999996,0.0037060702875573,-0.0319488817885018,0.0279446219382408,17.44561134139535,78.35102892,596.3566418604639,4.301739534882636,4.384930232557066
292,9.772966666666662,-0.0584735534256146,-0.3799219027328019,0.0622009229674626,17.447092898992246,78.35026816,600.8968364341066,8.513699224804395,8.551883720928444
293,9.806333333333328,-0.0675186368475795,0.2538871139509354,-0.1461838835634614,17.44942824385965,78.35581306315788,604.1042573099406,8.64566081871392,8.659707602339655
294,9.839699999999993,0.0098615548457533,-0.4203194888174438,-0.03478168264006,17.432640111627904,78.3701383627907,565.928809302321,8.140574418604459,8.125232558139343
295,9.87306666666666,0.009797657082191,0.0130209442663777,0.3559105431314153,17.444361899224802,78.35429695581395,594.4720527131689,9.359621705425957,9.327984496123634
296,9.906433333333325,0.115257365992041,-0.3553425630103793,0.5551011714588261,17.44102682409357,78.35880411929824,586.3549286549759,8.965859649123042,8.994157894737056
297,9.939799999999991,-0.0237699680511297,0.2774866879646702,-0.1078594249201379,17.451946919534883,78.36328332000001,606.6728093023258,7.193423255813836,7.334651162790587
298,9.973166666666657,0.0078807241747047,-1.3663826766069858,0.0945686900963478,17.44843589263566,78.35281953333335,603.1196472868226,9.171368217053807,9.196976744185616
299,10.006533333333323,0.0579481718139833,-0.0945402910898036,0.5781469648562075,17.44667682900585,78.35047244935673,599.7304011695911,7.239945029240227,7.391614035088152
300,10.039899999999989,0.1029392971245782,-1.2621938232165266,0.4142279020232645,17.429615714772726,78.37385065431818,570.2803045454555,8.82597954545457,8.837795454545478
301,10.073266666666683,-0.1578274760383144,-0.6416329428472151,-0.3564785232514359,17.4434708439394,78.35541943848484,594.9458545454696,9.492554545454952,9.497545454545858
302,10.106633333333349,-0.0074405395811625,0.5935676251331334,0.0970962016323195,17.441249708128648,78.35850529181288,586.8825736841962,9.00785263157831,8.972707602338508
303,10.139999999999986,0.0253461128862475,0.2598509052207509,0.2417465388718175,17.4455766,78.351029,596.4620000000037,4.174000000003562,3.990000000003768
304,10.17336666666668,-0.0197018104360353,-0.7938658146957025,0.2246077387304123,17.44708345418605,78.35025885077519,600.888127131786,8.35569689922765,8.413023255816961
305,10.206733333333347,-0.1012992545256963,-1.050805821799501,-0.0583883564054551,17.439903347719294,78.36016338842106,588.6067719298168,9.272370760233752,9.336081871344826
306,10.240100000000012,-0.1409371671998323,0.1725878594201823,-0.2973375931842821,17.43244694627907,78.37039961883721,565.4594139534913,7.858088372093161,8.053511627907096
307,10.273466666666678,-0.0100674476390887,0.228824991121952,-0.0041178558737561,17.44417408806202,78.35455673751937,593.959203100792,9.22224186046592,9.225224806202242
308,10.306833333333344,0.0786297479588213,-0.81008164714235,0.2917997870074547,17.449420119005847,78.35567740380118,604.0366812865511,8.688353801168933,8.644298245613385
309,10.34020000000001,-0.0676038338658078,-0.7336741214060264,-0.1140362087326185,17.445581309767444,78.35101765534884,596.6097627906985,4.187441860465957,4.2550232558147805
310,10.373566666666676,-0.0696982605609147,-1.9064110756127572,-0.3741924032658445,17.447101122635658,78.35024277271317,600.9078550387599,8.431992248062127,8.429736434108637
311,10.406933333333342,-0.0598509052187241,0.0043450479218,-0.1872630457941178,17.449434465730995,78.35569762152046,604.017512280702,8.688942690058331,8.682058479532017
312,10.440300000000008,0.1353141640042619,0.5522470713517966,0.5289243876464563,17.44558365285714,78.35101194571429,596.7042000000013,4.244521428572706,4.199071428572724
313,10.473666666666674,-0.0381256656013698,-1.0394746183892911,-0.0874689385866215,17.447146642857142,78.35021623015874,601.0641111111122,8.528960317461332,8.544682539683569
314,10.50703333333334,-0.0210294639690788,0.0419098331567422,-0.0002200922982845,17.44101439235632,78.35882755005747,586.323301149419,8.804839080459455,8.853103448275554
315,10.540400000000005,0.0541853035140646,-0.6180191693285142,0.1467944621929829,17.452028076190473,78.36340857809523,606.5626285714272,7.40933333333404,7.4110476190483165
316,10.573766666666671,0.0292012779552842,0.2035782747609935,0.2318494852680974,17.44843083174603,78.35266268420635,603.028145238094,9.188888888889489,9.166769841270431
317,10.607133333333337,0.1081860134893433,1.347774227902407,0.5029605963785558,17.446685589999998,78.35044508333334,599.8892333333321,7.373799999998811,7.3249999999987985
318,10.640500000000003,-0.1938232161876876,1.3487752928647925,-0.3733759318432669,17.452023889285712,78.36337669285714,606.6061428571411,7.361000000000895,7.416666666667551
319,10.673866666666669,-0.1843521476747625,0.7562371316999585,-0.5228966986153305,17.448426247619047,78.35262547619047,603.0120761904745,9.162800000000784,9.196222222222998
320,10.707233333333306,-0.0058359957401664,-0.0455946041887496,0.2384238551649559,17.446684536264367,78.35044190224137,599.9354793103445,7.281403448275473,7.367701149424908
321,10.7406,0.0201916932906607,-0.9352928647493428,0.0166560170391726,17.452019800000002,78.36334467714286,606.5671000000009,7.351328571428112,7.362428571428111
322,10.773966666666666,0.0154135605252837,-0.4172239971596674,0.2545473908407946,17.448421761111113,78.35258821714285,603.0135500000011,9.14915634920578,9.165817460316887
323,10.807333333333332,-0.047497337593206,-0.1766418175370958,0.231948881789021,17.439533962068968,78.36065182183907,587.9429425287404,9.383264367816158,9.337931034482846
324,10.840699999999998,0.11288604898814,1.648903088392354,0.6395101171455729,17.43268947,78.37007225833334,566.1990833333289,7.582183333333087,7.632999999999754
325,10.874066666666664,0.2124387646428916,-1.9707348242783176,0.557046503372009,17.444704806666664,78.35384930555556,595.2320555555492,9.163922222221878,9.205999999999658
326,10.90743333333333,0.1234717784880231,0.0768122115673269,0.3635569755070515,17.439502872931037,78.36069251724138,587.8633919540259,9.34179540229889,9.382672413793143
327,10.940799999999996,-0.0374014909481177,0.1381469648545732,0.1997870074543794,17.45201151047619,78.36328103619049,606.6123142857144,7.351742857142756,7.401523809523711
328,10.974166666666662,-0.0521476748313251,-0.1104721334776433,-0.2926162584302744,17.448412518253967,78.35251345396826,602.996797619048,9.13447619047598,9.133412698412492
329,11.007533333333328,0.1810720624780987,-2.398693645726233,0.5180262690820444,17.439471640344827,78.36073328436781,587.81587586207,9.351814942528751,9.341896551724153
330,11.040899999999993,0.0638551650692574,0.1585729499467421,0.2809371671992255,17.432769875714285,78.369964075,566.4170214285726,7.423221428571506,7.514571428571498
331,11.07426666666666,0.1155981540648636,-0.1967483138073912,0.0544976925811291,17.444788390158728,78.35373953333334,595.4468158730153,9.248060317460284,9.167015873015842
332,11.107633333333325,0.0183812566560264,-0.012403265885669,0.0809442669506811,17.441002990508473,78.35884972361582,586.2992774011303,8.629157062146918,8.607214689265561
333,11.140999999999991,0.141640042598509,0.516506922257721,0.3386581469648562,17.4455514,78.3509974,597.193,4.106,4.21
334,11.174366666666657,-0.0325523606673488,0.547866524671677,-0.3199290024847949,17.447243590499998,78.35014287966668,601.3971999999977,8.631354166664245,8.764549999997563
335,11.207733333333323,-0.1571742988995078,0.1168619098331476,-0.6933475328361828,17.43965105058824,78.36067576862744,583.0610065359589,8.30074248366085,8.417202614379816
336,11.241099999999989,0.0159105431312726,0.5683280085197924,0.0066879659224499,17.445399650000034,78.35120726909086,596.817236363699,4.250390909079533,4.155999999988471
337,11.274466666666683,0.0822151224708406,0.591025914093357,0.1310330138446256,17.44343577885058,78.35547331149424,594.7913034482867,9.396326436781695,9.448896551724255
338,11.307833333333349,0.002591409300672,-0.3807241746547225,-0.2286829960954175,17.43792076111111,78.36301222777779,578.8302222222147,7.988388888888415,8.034999999999517
339,11.341199999999986,0.0117145899891506,0.222364217252516,-0.0582321618753518,17.45191481727272,78.36364203636363,606.3723999999887,7.264427272727858,7.129000000000638
340,11.37456666666668,0.0659069932549715,0.7924245651415247,0.0657011004605888,17.44100343740742,78.35870053388888,590.498742592618,9.393405555555834,9.360648148148345
341,11.407933333333347,0.1591054313098096,0.5417820376301625,0.4313383031588637,17.435243166666655,78.36662669151517,572.4042323232062,7.438971717169893,7.580989898988261
342,11.441300000000012,0.2425559105427105,-1.092502662404819,0.5291160809359264,17.451921591818174,78.36364268000001,606.3280181818068,7.332372727273344,7.26736363636422
343,11.474666666666678,-0.004827831025885,-0.2602768903077821,-0.0049698260553979,17.430907485714343,78.3720903904761,572.6917619048625,9.349761904762383,9.194285714286828
344,11.508033333333344,-0.0466524671636542,-0.3755058572954522,-0.3910330138449577,17.433567106666676,78.3687421635185,568.3552481481614,6.559012037035855,6.717222222220945
345,11.54140000000001,0.0438764643235428,0.3005750798729018,-0.0370181043672843,17.452091569999997,78.363409122,606.6404799999985,7.285120000000705,7.331800000000728
346,11.574766666666676,0.1377351792687497,-0.5095278665248029,0.3918849840256854,17.448310292499997,78.35206629049999,602.8433533333312,9.046880000001014,9.15028333333438
347,11.608133333333342,0.0212424565141652,-0.6168122115730376,0.1701526446576103,17.435993135703704,78.36514333644443,574.1159733333391,6.188524444443907,6.05042962962912
348,11.641500000000008,0.0009584664535736,-0.3261980830678057,-0.1563365282217955,17.452085870512818,78.36337088717949,606.5146794871777,7.438987179487999,7.287179487180378
349,11.674866666666674,0.0676322328718436,0.0682712105073213,0.1461412850550433,17.448206696068375,78.3517317382906,602.7562239316237,9.106464957265066,9.100957264957383
350,11.70823333333334,0.0851260205893374,0.3938161164345793,0.1367483138097518,17.433323710151516,78.36844424181818,576.5520696969701,7.968361363636294,7.996893939393869
351,11.741600000000005,0.0170820021302779,-0.0853674121428509,-0.2894568690083727,17.45183176540541,78.36365670864865,605.9767405405495,7.489118918919107,7.4115675675676815
352,11.774966666666671,-0.1556691515798099,0.1743414980463953,-0.8691018814347159,17.43408989711711,78.36980221738739,569.0921450450328,6.717176576576319,6.942630630630474
353,11.808333333333337,-0.061341853035111,0.2002129925456241,-0.2227902023427617,17.429296176767682,78.37419954444444,569.850202020211,9.2367575757559,9.256868686866948
354,11.841700000000003,0.0160170394035375,0.55723109691198,0.1618743343981507,17.45166558,78.363717035,605.5754500000072,7.35580000000015,7.478750000000151
355,11.875066666666669,-0.1265459708910608,-0.1477884274049115,-0.8046290379837389,17.440831190909098,78.35908995878786,585.8697151515312,8.1173636363649,8.122545454546625
356,11.908433333333306,-0.1979694710686055,0.7240255591054988,-0.8404188853393698,17.434135551282054,78.36780020811965,578.413679487184,9.426497435897431,9.298128205128208
357,11.9418,0.0526943556973985,0.545431309904256,0.0509478168258483,17.44498042421053,78.35179065684211,595.3857578947402,4.360557894736587,4.30768421052606
358,11.975166666666667,0.1337593184238042,0.3122115725948199,0.3821796237131651,17.443968069166672,78.35485918083333,593.4525666666771,8.734425000000806,8.71400000000082
