frame,timestamp_s,gyro_x,gyro_y,gyro_z,gps_lat,gps_lon,gps_alt_m,speed_2d_mps,speed_3d_mps
0,0.032999999999901775,0.4142705005168873,-0.2342917997312657,0.8029818955962658,17.438920281999998,78.37642821200001,600.2981199999999,9.000069999999967,9.103799999999778
1,0.06636666666690871,0.0893006744768324,-3.5608164714241606,-0.5493929712450668,17.438922083799998,78.37643034746667,600.2861079999999,8.993062999999985,9.057086666666562
2,0.09973333333368828,0.027298544547702,-0.6521476748582287,-0.3007809726696191,17.438923885599998,78.37643248293334,600.2740959999999,8.986055999999955,9.010373333333028
3,0.1331000000000131,0.0244728434514041,-0.3219595314270258,0.5403194888227925,17.4389257205,78.3764346184,600.275986,8.995268000000017,9.003379999999988
4,0.16646666666679266,0.5015406460653279,-2.4349875754109656,1.3893361731924403,17.438927555666666,78.37643675386667,600.2779879999999,9.004610666666702,8.996706666666642
5,0.19983333333311748,0.5866524671641078,-2.53979410721,1.7991480298197118,17.438929390833334,78.37643888933333,600.27999,9.013953333333324,8.99003333333334
6,0.23319999999989705,-0.3342917997752876,5.326996805049396,-0.3831203407263257,17.4389312592,78.3764409916,600.2803319999999,9.02329600000003,8.996640000000022
7,0.266566666666904,0.011792687255799,-1.860937167296,-0.4702875399415263,17.438933127733332,78.3764430937,600.2806656666667,9.032638666666672,9.003313333333338
8,0.29993333333368355,0.5208945687004306,-8.663784167710507,0.571970181032796,17.438934996266667,78.3764451958,600.2809993333333,9.04198133333338,9.0099866666667
9,0.33330000000000837,-0.3013844515449224,6.830777422797684,0.0339084132108552,17.438936665,78.37644710718182,600.2770645454546,9.011121818181804,9.019081818181824
10,0.36666666666678793,-0.1913383031581948,-1.1554845580221624,-1.1774937877121672,17.438938333333333,78.37644901818182,600.2731212121212,8.980181818181734,9.028181818181842
11,0.40003333333311275,0.2779552715653015,-3.000333688322093,0.4880511182108781,17.43894000166667,78.37645092918181,600.2691778787879,8.949241818181877,9.0372818181818
12,0.4333999999998923,-0.4132481363087782,3.487497337551254,-1.2375718849696713,17.438941670000002,78.37645281890909,600.2620436363636,8.938510909090905,9.01872727272722
13,0.46676666666689925,0.3971529996445817,-3.299850905215733,0.6444231451895626,17.438943338333335,78.37645469957576,600.2535503030304,8.936387575757577,8.988393939393962
14,0.5001333333336788,0.2878239261609894,2.8941143059565704,1.383500177501247,17.438945006666668,78.37645658024243,600.245056969697,8.934264242424234,8.958060606060497
15,0.5335000000000036,0.2444089456835109,-3.247284344976287,-0.2197018104289441,17.438946675,78.37645846090909,600.2370545454545,8.927722727272725,8.938772727272726
16,0.5668666666667832,-0.1266737664172035,0.8283280084766486,-0.5086403975862427,17.438948343333333,78.37646034157576,600.2297745454546,8.914679393939362,8.935739393939386
17,0.600233333333108,0.4188214412497351,-1.4695065672709915,0.537252396166479,17.43895001166667,78.37646222224242,600.2224945454545,8.901636060606089,8.932706060606067
18,0.6335999999998876,0.0279872204424221,0.862960596404426,0.3101171458952442,17.438951686545455,78.37646410618183,600.2155745454545,8.894320000000011,8.928690909090905
19,0.6669666666668945,-0.0068654597034586,-0.5274618388844199,0.4918636847868547,17.438953415545456,78.37646601718183,600.2116312121212,8.934359999999911,8.916557575757603
20,0.7003333333334467,-0.5653177138816688,7.870607028771307,-1.5392852916730768,17.438955144545456,78.37646792818182,600.2076878787879,8.974400000000083,8.904424242424218
21,0.7336999999999989,-0.0343769968047398,-6.305559105409443,-0.9822790202356402,17.438956873545454,78.37646983918182,600.2037445454545,9.01443999999998,8.892290909090915
22,0.7670666666667785,0.0197941072089469,0.5686190982908133,0.5439403620808956,17.438958553333336,78.37647172557575,600.1951260606061,9.0136339393939,8.92198787878803
23,0.8004333333331033,0.4907064252739866,-4.136734114293939,1.4579268725599144,17.43896022166667,78.37647360624243,600.1854193939394,9.003320606060592,8.961421212121262
24,0.8338000000001102,0.124387646454226,3.4351011712381947,1.3817252396824458,17.43896189,78.37647548690909,600.1757127272728,8.993007272727215,9.000854545454766
25,0.8671666666668898,-0.194000709976983,6.431309904228757,-1.0296414625442665,17.438963589545455,78.37647738318182,600.1594515151515,9.005634848484917,9.015318181818165
26,0.900533333333442,-0.3877032303941046,-7.036066737661492,-1.8513170039241065,17.438965318545456,78.37647929418182,600.1370048484848,9.03991151515166,9.006218181818143
27,0.9338999999999942,-0.2183706070292241,6.879073482434404,1.7673056443022277,17.438967047545454,78.37648120518182,600.1145581818182,9.07418818181817,8.997118181818186
28,0.9672666666667737,0.5490237841738563,-5.170465033703929,0.9175860845090612,17.438968750121212,78.37648308315151,600.0951503030302,9.071536969696655,8.997266666666745
29,1.0006333333330986,0.0617394391207672,1.2162868299552787,0.97106851260444,17.438970357787877,78.37648484248484,600.086656969697,8.93625030303033,9.030633333333329
30,1.0340000000001055,-0.4500532481307168,3.3742279020445247,-1.6702875399139026,17.438971965454545,78.37648660181817,600.0781636363636,8.800963636363083,9.064000000000137
31,1.067366666666885,-0.274909478167988,-2.118274760382404,-1.7215619453294402,17.43897357312121,78.3764883611515,600.0696703030303,8.665676969696758,9.09736666666672
32,1.1007333333334373,-0.099510117145772,3.4406957756476806,0.6903088391911514,17.438975320484847,78.37649020430302,600.0681618181818,8.732392121212452,8.974272727272187
33,1.1340999999999894,0.3433013844521834,-0.611075612355311,1.2458785942494726,17.43897707981818,78.37649205463636,600.0672518181818,8.816415454545401,8.837772727272814
34,1.167466666666769,-0.0541711040063122,1.1803100224404597,-0.0678972902388822,17.438978839151513,78.37649390496969,600.0663418181819,8.900438787878922,8.70127272727251
35,1.2008333333330938,0.2709265175729988,-0.3869009584765512,0.4052893148734386,17.43898056060606,78.37649577424243,600.0601287878789,8.95188636363631,8.70303030303016
36,1.2342000000001008,0.1280937167201239,-1.6021725239799849,0.1476038338691271,17.438982259272727,78.37649765490909,600.0507254545454,8.983736363636448,8.787963636363857
37,1.2675666666668803,-0.1827831025916288,3.097245296415713,-0.2516293929712615,17.438983957939392,78.37649953557576,600.0413221212121,9.015586363636366,8.872896969696976
38,1.3009333333334325,0.1059140930050045,-1.1612779552373649,-0.2019595314162938,17.43898565660606,78.37650137648485,600.0385781818183,9.012747878787607,8.940933333333456
39,1.3342999999999847,-0.0135782747594753,-0.5018636847617709,-0.0428647497315194,17.43898735527273,78.37650313581818,600.0494981818182,8.938734545454613,8.97429999999997
40,1.3676666666667643,-0.0611288604938346,0.5623713170188338,-0.0805111821186219,17.438989053939395,78.37650489515151,600.0604181818182,8.864721212121115,9.00766666666671
41,1.401033333333089,0.1909655662030075,-0.8519879304077411,0.6642705005344791,17.43899075786667,78.37650666303334,600.0707520000001,8.793382333333293,9.037416666666934
42,1.434400000000096,0.2417039403598711,0.7357188498408348,0.8371458998796782,17.4389926264,78.3765086984,600.0627440000001,8.805728000000013,8.953999999999908
43,1.4677666666666482,0.2819311324063702,-2.0751242456426624,0.4025292864706828,17.438994494933333,78.37651073376666,600.054736,8.818073666666649,8.870583333333451
44,1.5011333333334278,0.3797515086985387,-0.3483564075758184,0.9594462193965791,17.438996364599998,78.37651276800001,600.04649,8.830680000000058,8.790453333333371
45,1.53449999999998,-0.2611821086280596,6.63857827479131,-0.4830937167196045,17.4389982665,78.37651477,600.031475,8.850700000000007,8.803800000000004
46,1.5678666666667596,-0.0350017749329051,-5.811771387944083,-1.054156904502195,17.4390001684,78.376516772,600.0164599999999,8.870720000000093,8.817146666666728
47,1.6012333333333117,0.3598367057230114,-1.402797302041956,0.5157969471260614,17.43900207153333,78.37651877276667,600.0019383333333,8.89012333333334,8.830740000000041
48,1.6346000000000913,-0.1488391906342944,3.7277103301957073,-0.2767199148053452,17.439004006799998,78.3765207414,600.00027,8.893460000000013,8.850760000000081
49,1.6679666666666435,-0.0866524671621661,-1.919240326600525,-0.5972133475280994,17.439005942066665,78.37652271003333,599.9986016666667,8.896796666666665,8.870779999999986
50,1.701333333333423,0.6834220802199116,-3.997302094444097,1.9087681930876548,17.439007875999998,78.37652468133334,599.9970666666666,8.900573333333353,8.890133333333338
51,1.7346999999999753,-0.2151650692174321,7.06626198077041,2.058892438773128,17.4390097779,78.3765267167,599.9987349999999,8.914920999999984,8.893469999999997
52,1.7680666666667548,-0.5371388001452442,8.29188498411823,-1.047696130619928,17.4390116798,78.37652875206666,600.0004033333333,8.929268666666712,8.896806666666677
53,1.801433333333307,-0.1498047568344188,-4.203532126412852,-1.2726304579421448,17.439013581700003,78.37653078313333,600.0016846666666,8.941136666666644,8.900573333333341
54,1.8348000000000866,-0.1192758253410278,2.7954419594793265,0.4426837060745299,17.439015483600002,78.3765327184,599.994344,8.89775999999989,8.913920000000035
55,1.8681666666666388,-0.231487397940126,3.2853035143691804,-0.4370607028749925,17.4390173855,78.37653465366667,599.9870033333333,8.854383333333432,8.927266666666636
56,1.9015333333334183,-0.0799006034812273,-3.300134895274922,-0.8685126020680389,17.439019288933334,78.37653659046667,599.9793713333333,8.812678000000002,8.938006666666672
57,1.9348999999999705,0.7755324813627952,-1.7322949946977362,2.431656017036117,17.4390212242,78.3765385591,599.965691,8.80567100000002,8.894630000000115
58,1.96826666666675,-0.3162939297080046,5.064337948210695,-0.233922612685862,17.439023159466668,78.37654052773334,599.9520106666666,8.798663999999988,8.851253333333263
59,2.0016333333333023,0.1651047213312728,-3.0632658856835024,-0.8274760383450507,17.439025094733335,78.37654249636667,599.9385589999999,8.793682333333303,8.80967333333334
60,2.035000000000082,0.2279020234291799,1.0340788072417466,0.1874334398296059,17.439027030000002,78.37654446500001,599.92955,8.828050000000117,8.802999999999978
61,2.068366666666634,-0.049041533545345,0.3620962016278963,-0.2963081292138873,17.43902896526667,78.37654643363334,599.920541,8.862417666666698,8.79632666666666
62,2.1017333333334136,-0.0631025914118099,-0.3721121760605608,-0.469549165784778,17.439030898800002,78.37654840053332,599.9113933333333,8.892954666666467,8.791733333333502
63,2.135099999999966,0.0076251331205926,-0.7165708200201709,-0.2274760383375442,17.4390328007,78.3765503358,599.899715,8.853581999999989,8.825100000000008
64,2.1684666666667454,-0.2330990415274791,0.4050266240478213,-0.7143201987792974,17.4390347026,78.37655227106667,599.8880366666666,8.814209333333242,8.858466666666743
65,2.2018333333332976,-0.1249112531069383,0.21197195599051,-0.6003283635069645,17.43903660266667,78.37655420450001,599.8769633333333,8.775753333333387,8.887983333333421
66,2.235200000000077,-0.0917997870078808,0.3484132055431838,-0.3606815761433781,17.4390384712,78.3765561064,599.876296,8.753063999999956,8.85127999999993
67,2.2685666666666293,0.1215264465746975,-1.923407880732582,0.1047639332620193,17.439040339733335,78.3765580083,599.8756286666667,8.73037466666668,8.814576666666689
68,2.301933333333409,0.2195243166446813,0.2355555555257982,0.7021512246910123,17.439042212133334,78.37655991213333,599.8743426666666,8.709270666666683,8.778646666666583
69,2.335299999999961,-0.1348455804057464,0.8945473908401147,-0.1965495207722068,17.4390441474,78.3765618474,599.8629980000001,8.713941999999994,8.755290000000029
70,2.3686666666667406,-0.0280440184630667,-0.0129215477169976,-0.0546680866163226,17.439046082666668,78.37656378266666,599.8516533333333,8.718613333333337,8.731933333333316
71,2.402033333333293,0.1180422435232302,-0.2484291799899544,0.4041622293272787,17.439048011833332,78.3765657159,599.8410813333334,8.720417666666831,8.710203333333322
72,2.4354000000000724,-0.0883919062809555,-0.0898828541075452,-0.0782108626197772,17.439049847,78.3765676178,599.8424160000001,8.678041999999984,8.713540000000002
73,2.4687666666666246,-0.0079304224346061,-0.685331913379401,0.1283777067805984,17.439051682166664,78.3765695197,599.8437506666667,8.635666333333424,8.71687666666666
74,2.502133333333404,-0.1874618388310173,0.9383315583647458,-0.3640752573561772,17.439053521599998,78.37657141946666,599.8445306666666,8.596426666666682,8.717439999999913
75,2.5354999999999563,-0.1339190628339056,1.2382854100034006,-0.2989882854140816,17.4390554235,78.376573288,599.83719,8.603099999999998,8.677400000000015
76,2.568866666666736,-0.1034859779901148,-0.2421015264352743,-0.3891231806885177,17.4390573254,78.37657515653333,599.8298493333333,8.60977333333336,8.637359999999841
77,2.602233333333288,0.0145118920848199,-0.5216258431083075,-0.0520908768206559,17.439059225066668,78.3765770273,599.822196,8.615084333333316,8.600446666666675
78,2.6356000000000677,0.0995953141660575,-0.6238977635865464,0.2041320553776549,17.4390610936,78.37657892920001,599.8101839999999,8.601403999999954,8.607120000000021
79,2.66896666666662,0.011989705360335,0.4973997159957968,0.159052183167732,17.439062962133335,78.3765808311,599.798172,8.587723666666687,8.613793333333323
80,2.7023333333333994,-0.0673056443021104,0.4243521476830804,-0.2555910543072875,17.439064828333333,78.37658272833335,599.7863933333333,8.57238666666664,8.61883333333332
81,2.7356999999999516,-0.0546751863684751,-0.222832800853547,-0.1748881789146426,17.4390666635,78.3765845635,599.777718,8.535016000000068,8.60215000000003
82,2.769066666666731,-0.1104011359589499,-0.0577351792650579,-0.2287681931120916,17.439068498666668,78.37658639866667,599.7690426666667,8.49764533333324,8.585466666666626
83,2.8024333333332834,0.0260560880447884,-0.7107649982302455,0.0979144480188751,17.43907033383333,78.37658823383335,599.760781,8.461540000000005,8.567323333333341
84,2.835800000000063,-0.0226624068156451,0.4602342917875441,0.236293929711472,17.439072169,78.376590069,599.7577779999999,8.441519999999963,8.530619999999935
85,2.869166666666615,-0.0220092296767029,2.175434859791092,0.4234291799759112,17.439074004166667,78.37659190416667,599.754775,8.42150000000006,8.493916666666777
86,2.9025333333333947,-0.0729712460056342,0.5965353212738742,-0.2240965566152168,17.439075841866668,78.37659373426668,599.7517213333333,8.400365333333362,8.458480000000018
87,2.935899999999947,0.0095314163999537,-0.7884185303477268,0.0332268370611387,17.4390777104,78.3765955027,599.748051,8.365664000000116,8.438460000000067
88,2.9692666666667265,0.0480227192041872,-0.5835285765114324,0.1649130280407355,17.439079578933335,78.37659727113333,599.7443806666666,8.330962666666633,8.41843999999998
89,3.0026333333332786,0.0159034433804373,0.4130848420489971,0.1623855165136596,17.439081439566667,78.37659904483334,599.740684,8.296445666666717,8.39736666666672
90,3.036000000000058,0.0008519701810436,1.3603833865814696,0.0534611288604898,17.439083208,78.37660088,599.73668,8.264079999999911,8.36399999999991
91,3.0693666666666104,0.042030528931384,0.0945757898449738,0.1447071352494293,17.43908497643333,78.37660271516667,599.732676,8.231714333333327,8.330633333333328
92,3.10273333333339,0.0736386226478095,-0.5109691160808015,0.0772310969095198,17.4390867476,78.37660454213334,599.7276333333333,8.200742666666601,8.297266666666523
93,3.136099999999942,0.0610010649625131,0.1076038338663376,0.2721405750780948,17.4390885494,78.3766062772,599.71095,8.185394000000008,8.263900000000016
94,3.1694666666667217,-0.0351437699638862,0.5017252396040354,0.068399006043424,17.439090351199997,78.37660801226666,599.6942666666666,8.17004533333331,8.230533333333282
95,3.202833333333274,-0.0422435214796863,1.11732339368537,-0.051828186024854,17.439092152999997,78.37660974733333,599.6796233333333,8.152940000000111,8.198866666666706
96,3.2362000000000535,-0.0103514376996165,0.7347816826384557,-0.1318849840260898,17.4390939548,78.3766114824,599.686964,8.116903999999955,8.185519999999983
97,3.2695666666666057,0.0397231096913303,-0.3134185303516072,-0.0590770323027054,17.4390957566,78.37661321746667,599.6943046666667,8.080868000000047,8.172173333333351
98,3.3029333333333852,0.0577919772779411,-0.1248704295401875,0.2787220447192176,17.439097552533333,78.3766149496,599.6995333333333,8.044245333333214,8.15677333333323
99,3.3362999999999374,0.150990415336146,0.7880724174624829,0.2182534611322166,17.4390992876,78.3766166513,599.68285,8.001536000000085,8.120070000000073
100,3.369666666666717,0.0068157614452498,-0.9517216897439262,-0.1018104366421758,17.439101022666666,78.376618353,599.6661666666666,7.958826666666666,8.083366666666667
101,3.403033333333269,-0.0769701810462603,0.2941160809453577,-0.3885250266291956,17.43910275773333,78.37662005773333,599.6515763333333,7.918422666666745,8.046056666666866
102,3.4364000000000487,0.0158892438759064,0.6734398296080385,-0.1864536741231259,17.4391044928,78.3766217928,599.657916,7.901072000000003,8.002680000000012
103,3.469766666666601,0.0596734114319639,-0.8106425275232263,-0.0253887113942197,17.439106227866667,78.37662352786667,599.6642556666666,7.883721333333382,7.959303333333454
104,3.5031333333333805,-0.084501242451312,0.4898402555864167,-0.1436705715142679,17.439107959799998,78.37662525666667,599.6689346666666,7.863644666666597,7.918433333333308
105,3.5364999999999327,-0.0468583599568566,0.2798189563190483,-0.2884717784939049,17.439109661499998,78.376626925,599.65759,7.817265000000048,7.901750000000017
106,3.5698666666667123,-0.1944905928299063,0.0432232872037744,-0.8016755413516681,17.439111363200002,78.37662859333334,599.6462453333332,7.770885333333182,7.885066666666612
107,3.6032333333332645,-0.1251402200915283,-0.8844586439672757,-0.5884061057868188,17.439113061666667,78.3766302552,599.6356766666667,7.723600333333304,7.865473333333309
108,3.636600000000044,-0.0941427050042399,-0.7421512246979687,-0.4745473908335913,17.43911473,78.3766318568,599.63234,7.667877999999858,7.818759999999881
109,3.669966666666596,0.0386670216601821,-0.7421813986370103,0.230431309910396,17.439116398333333,78.3766334584,599.6290033333333,7.612155666666792,7.772046666666772
110,3.7033333333333758,-0.1018814341518548,-0.3517926872593683,-0.3095491657855096,17.43911807,78.37663505666667,599.6245666666666,7.561366666666667,7.724333333333334
111,3.736699999999928,0.0541640042597462,-0.1227263045722962,-0.1176144834914969,17.4391197717,78.3766366249,599.610219,7.555027000000016,7.667610000000143
112,3.7700666666667075,-0.0242669506547769,-0.2869293574841372,0.030443734471024,17.4391214734,78.37663819313333,599.5958713333333,7.548687333333322,7.610886666666566
113,3.8034333333332597,0.1346325878575313,0.3172239971828594,0.723152289669416,17.439123175099997,78.37663975793333,599.5821073333333,7.538433666666711,7.559313333333339
114,3.8368000000000393,0.1097337593177361,1.2233439829629886,0.626922257722607,17.4391248768,78.3766412928,599.573432,7.494055999999954,7.552639999999993
115,3.8701666666665915,0.0401490947835132,-0.0402555910677375,0.0115015974473438,17.4391265785,78.37664282766667,599.5647566666667,7.4496783333335,7.545966666666692
116,3.903533333333371,0.1326801561942296,-0.6021157259490946,0.150798722044341,17.4391282696,78.37664436253334,599.5562580000001,7.404170000000082,7.535406666666732
117,3.9368999999999232,0.1457082002131901,0.0420021299267776,0.4155910543143853,17.439129871200002,78.3766458974,599.549251,7.349115000000221,7.492030000000175
118,3.970266666666703,0.0002839900611743,0.1564785232507046,0.1915512957057867,17.4391314728,78.37664743226667,599.542244,7.294059999999985,7.448653333333322
119,4.003633333333255,0.0168974085883488,0.4339013134578905,0.1261767838089401,17.4391330744,78.3766489635,599.5359636666666,7.240640000000091,7.404186666666787
120,4.037000000000035,0.0871139510117145,0.020021299254526,0.2181043663471777,17.439134676000002,78.376650465,599.53563,7.200599999999918,7.350799999999891
121,4.070366666666587,0.1670571530006845,-0.5911750088808231,0.2326659566932831,17.4391362776,78.3766519665,599.5352963333333,7.160560000000019,7.297413333333359
122,4.103733333333366,0.0612708555200147,-0.3364998225060424,-0.0723464678736598,17.4391378792,78.3766534568,599.5337679999999,7.120258666666516,7.245146666666512
123,4.1370999999999185,0.0677316293928258,-0.9805750798704224,0.0056230031951109,17.439139480799998,78.3766548582,599.522757,7.077883000000052,7.201770000000054
124,4.170466666666698,0.1409442669497165,-0.4277600284121141,0.3254384096540709,17.4391410824,78.3766562596,599.5117459999999,7.0355073333333005,7.158393333333299
125,4.20383333333325,0.1201987930402804,1.3968761093514122,0.4361022364112646,17.439142676333333,78.37665766483333,599.502805,6.990985000000229,7.11540000000015
126,4.23720000000003,0.0812779552712458,1.1682215122444173,0.1024068157587459,17.4391442112,78.37665909959999,599.509812,6.929923999999967,7.0753599999999786
127,4.270566666666582,0.0397089101871376,-0.1510117145943963,-0.0827263045816448,17.439145746066664,78.37666053436666,599.5168189999999,6.868863000000121,7.03532000000008
128,4.303933333333362,0.0355271565486897,0.2614412495617561,-0.0756691515805186,17.439147284866667,78.3766619652,599.5213873333333,6.8159046666666825,6.992919999999877
129,4.337299999999914,0.1044302449405407,-0.9984664536786834,-0.0613631522911662,17.4391488531,78.3766633666,599.5077070000001,6.823578999999979,6.932860000000165
130,4.370666666666693,0.0820021299250651,-0.6282570110028585,0.0019879304204721,17.439150421333334,78.376664768,599.4940266666666,6.831253333333328,6.872800000000044
131,4.4040333333332455,0.1422790202353571,-0.1940805821736527,0.3361998580111182,17.43915200614815,78.37666617925926,599.4812381481481,6.828140740741169,6.820896296296258
132,4.437400000000025,0.0585729499467518,-0.3499467518636848,0.1064962726304578,17.43915371155556,78.37666766222222,599.4749355555556,6.746577777777856,6.828311111111105
133,4.470766666666577,0.0422577209792619,-0.2810791622234459,-0.0740007099730312,17.439155416962965,78.37666914518519,599.468632962963,6.665014814815098,6.8357259259259004
134,4.504133333333357,0.1030599929001851,-0.0134753283613964,0.316109336173365,17.439157090962965,78.37667061244444,599.464842962963,6.590989629629577,6.805451851851785
135,4.537499999999909,0.0003993610210627,0.0604366347398805,0.1007720979798094,17.439158722222224,78.37667205833334,599.4644722222223,6.527222222222331,6.723888888889028
136,4.570866666666689,0.0638622648237257,0.4907525736611366,0.3290912318223397,17.43916035348148,78.37667350422223,599.4641014814815,6.463454814814649,6.642325925925714
137,4.604233333333241,-0.0051828186043676,0.356549520769243,0.1590699325450882,17.439161984740743,78.37667497703704,599.4602303703705,6.436845185185208,6.574225925926037
138,4.63760000000002,-0.0322896698621552,0.2253461128953472,-0.0083493077727169,17.439163616000002,78.37667646,599.45504,6.42424,6.5112000000000005
139,4.670966666666573,0.0291356052566148,-0.1703141640050649,0.2637646432394419,17.439165245111113,78.37667794081482,599.4499677777778,6.410195555555865,6.449570370370444
140,4.704333333333352,0.012602058926868,0.5901668441720571,0.1176783812552636,17.439166802222225,78.37667934962964,599.4488555555556,6.347911111111153,6.434740740740751
141,4.737699999999904,0.1316506922256703,0.1244728434560292,0.2408732694381412,17.439168359333333,78.37668075844445,599.4477433333334,6.285626666666442,6.419911111111058
142,4.771066666666911,0.0344621938249208,0.3610365637204764,0.071182108631467,17.439169941037036,78.37668214266667,599.4449096296296,6.23416296296293,6.389096296296228
143,4.804433333333691,-0.0309992900218969,0.5853212637613903,0.0086971956086066,17.439171572296296,78.37668347733334,599.438607037037,6.204503703703544,6.326070370370031
144,4.837800000000016,-0.0353035143762339,-0.196698615542959,-0.2456869009558754,17.439173203555555,78.37668481200001,599.4323044444444,6.174844444444359,6.263044444444264
145,4.871166666666795,-0.0879304224341137,-0.3804756833381554,-0.2465743698978349,17.43917476425926,78.3766861701852,599.4311759259259,6.133896296296032,6.22118518518502
146,4.90453333333312,0.0043734469295575,-0.2213560525368568,-0.1299680511173778,17.439176284296295,78.37668754192593,599.4330296296296,6.086441481481457,6.191525925925912
147,4.9378999999999,0.0160010649604183,-0.2288871139291808,-0.1612087326930314,17.439177804333333,78.37668891366667,599.4348833333332,6.038986666666559,6.161866666666599
148,4.9712666666669065,-0.062477813276616,-0.9134966276174376,-0.49158679446231,17.439179393851852,78.37669025066667,599.4353474074073,6.026967407407411,6.1183111111111295
149,5.004633333333686,0.0094710685088233,-0.600894568692157,-0.3273766418312527,17.439180988037037,78.37669158533333,599.4357181481481,6.017328148148111,6.0738222222220495
150,5.038000000000011,0.0713525026624068,-0.6666666666666666,-0.2971246006389776,17.439182573333333,78.37669290222222,599.4351111111112,6.000933333333282,6.037333333333319
151,5.0713666666667905,0.1560259140959805,-0.5153088392018654,0.0063809016695539,17.439184130444445,78.37669416274073,599.4314037037037,5.963117777777564,6.026211111111048
152,5.104733333333115,0.0395456159030881,-0.1343982960583787,-0.0562016329434022,17.439185687555558,78.37669542325925,599.4276962962963,5.925302222222104,6.015088888888854
153,5.138099999999895,0.0877955271560342,0.2212566560190462,0.2760170394021157,17.439187224555557,78.37669666366666,599.4255977777779,5.88346444444417,5.9898888888886646
154,5.171466666666902,0.0626198083060311,0.0995030173979587,0.1651402200913927,17.43918874459259,78.3766978871111,599.4248562962963,5.838234074074029,5.9528148148147775
155,5.204833333333681,0.1089811856532554,0.2507987220320158,0.3363951011640432,17.43919026462963,78.37669911055555,599.4241148148147,5.793003703703578,5.915740740740638
156,5.238200000000006,0.1544195953146482,0.6684132055423004,0.2987433439837064,17.439191816,78.376700334,599.4180466666667,5.765633333333336,5.872400000000006
157,5.271566666666786,0.1020234291822063,1.0665246716405767,0.1072914448037389,17.439193373111113,78.37670155744445,599.4110025925926,5.741535185185085,5.827911111110926
158,5.304933333333111,0.0400141995026247,0.4519985800445699,-0.1610223642192766,17.439194892848487,78.376702748,599.4063903030303,5.722749090909106,5.786860606060578
159,5.33829999999989,0.0707845225408527,-0.6454916577724517,-0.3018459353887891,17.43919619718182,78.376703749,599.4157936363637,5.734579090909133,5.7656272727271975
160,5.371666666666897,0.2034078807251431,-0.2062477813320928,0.1643592474258234,17.43919750151515,78.37670475,599.425196969697,5.746409090909078,5.744393939393961
161,5.405033333333449,0.2970121879039705,-0.0790734824361663,0.3861436516323671,17.439198805848484,78.376705751,599.4346003030304,5.758239090909105,5.72316060606058
162,5.4384000000000015,0.1840681576141425,0.940404685835403,0.1464536741206735,17.439200058545453,78.37670664872728,599.4256727272727,5.721272727272802,5.730327272727252
163,5.471766666666781,0.2971896816925758,-0.6322979528962228,-0.0223346349586739,17.43920130221212,78.37670752839394,599.4135393939393,5.675772727272607,5.742460606060639
164,5.505133333333106,0.3578511418766821,-0.2636847710240302,0.402437581355651,17.43920254587879,78.37670840806061,599.4014060606061,5.630272727272722,5.754593939393941
165,5.538500000000113,0.2732694355694161,0.5968051118100444,0.2794462193865349,17.439203806363636,78.37670930454546,599.3948227272726,5.620427272727334,5.734772727272578
166,5.571866666666892,0.2807005088160207,0.8812684889373004,0.3616140101777544,17.439205080363635,78.37671021454545,599.3926993939393,5.639233939393915,5.689272727272787
167,5.6052333333334445,0.1725097621571492,-0.6273766417986071,-0.1791551295684084,17.439206354363638,78.37671112454545,599.390576060606,5.658040606060624,5.643772727272686
168,5.638599999999997,0.2941427050054701,-0.7107561235323749,0.1118210862633529,17.439207644,78.37671201890909,599.3882963636364,5.667152727272786,5.614690909090852
169,5.671966666666776,0.1592900248475753,0.0402271920292308,0.0412637557587744,17.439208978666667,78.37671286824242,599.3855663636364,5.648346060606039,5.63289090909093
170,5.705333333333101,0.1070879185889644,0.7494971009327692,-0.0807005088177309,17.439210313333334,78.37671371757575,599.3828363636363,5.62953939393942,5.651090909090884
171,5.738700000000108,0.1233759318427849,0.2713347532943014,-0.1463081292129228,17.439211648,78.37671456690909,599.3801063636364,5.610732727272673,5.669290909090963
172,5.772066666666888,0.1670003549873068,-1.1798793042236366,-0.1285197018114982,17.439212895212123,78.37671544539394,599.3817490909091,5.586095757575747,5.652509090909083
173,5.80543333333344,0.3839308957518313,-0.3448526801667319,0.6214649153921794,17.43921413887879,78.3767163250606,599.3835690909091,5.561222424242307,5.634309090909006
174,5.838799999999992,0.0317784877533063,1.4210010649631817,-0.158253461128473,17.439215382545456,78.37671720472727,599.385389090909,5.536349090909036,5.616109090909052
175,5.872166666666772,-0.0129570465041727,-0.2731629392851182,-0.7508874689365861,17.43921666651515,78.37671804409091,599.3803575757574,5.533037878787917,5.593878787878665
176,5.905533333333096,0.0518991835283181,-0.7153283635059147,-0.4872701455465976,17.439217970848485,78.3767188630909,599.3718642424242,5.540621212121216,5.569612121212109
177,5.938900000000103,0.0026446574362881,0.0387291444792746,-0.3203052893177649,17.439219275181816,78.37671968209091,599.3633709090908,5.548204545454566,5.545345454545388
178,5.972266666666883,0.070618861673746,-0.9656490356175356,-0.2400070997504768,17.439220568363638,78.37672052339393,599.3569963636363,5.5509927272727335,5.532230303030297
179,6.005633333333435,-0.0633439829581322,0.5272985445177443,-0.2560170394015674,17.439221842363636,78.3767214030606,599.3542663636364,5.54553272727271,5.538296969696989
180,6.038999999999987,-0.1474973375931842,0.65814696485623,-0.4020234291799787,17.439223116363635,78.37672228272727,599.3515363636363,5.540072727272723,5.544363636363641
181,6.072366666666767,-0.0940149094787648,0.3589847355401233,-0.3048846290378841,17.43922439251515,78.37672316024243,599.34829,5.535279696969716,5.549784848484833
182,6.105733333333092,0.0511655425390646,0.0772807951709017,-0.1522660040235744,17.439225696848485,78.37672400957577,599.33828,5.539223030303031,5.546751515151514
183,6.139100000000099,0.0461838835648595,-0.8631877884135732,-0.0332800851975527,17.439227001181816,78.37672485890909,599.32827,5.543166363636374,5.543718181818174
184,6.172466666666878,0.1042811501599574,-0.5581398651032621,0.1806034788786137,17.43922830551515,78.37672570824242,599.31826,5.547109696969689,5.540684848484855
185,6.20583333333343,0.1646550704074452,0.2249142113232632,0.4017867707997208,17.439229586363638,78.37672658106061,599.3127121212121,5.5576287878788095,5.54234848484849
186,6.2391999999999825,-0.0414483493083262,1.156166134184519,-0.2715654952103313,17.439230860363637,78.37672746072727,599.3084654545455,5.570065454545444,5.545381818181816
187,6.272566666666762,0.0665601703934106,-0.2737900840083604,-0.3145840728912895,17.439232134363635,78.37672834039394,599.3042187878788,5.582502121212165,5.548415151515162
188,6.305933333333087,0.0708981185656512,-0.4056656017028012,-0.2996663116790111,17.439233422848485,78.37672916212121,599.2995375757575,5.581178181818183,5.555793939393939
189,6.339300000000094,0.0473198438043932,-0.2880014199424482,-0.1850550230793338,17.439234727181816,78.37672992045455,599.2943809090909,5.564798181818146,5.5679272727273
190,6.372666666666646,0.1959531416412533,-1.459708910188668,0.2854100106528962,17.43923603151515,78.37673067878788,599.2892242424242,5.548418181818222,5.580060606060576
191,6.406033333333426,0.046517571886433,1.31795527155061,-0.0211359602398217,17.4392373715,78.37673145686666,599.2845173333333,5.539344000000005,5.586379999999996
192,6.439399999999978,0.0575505857277947,0.1960383386532846,-0.2212140575155614,17.439238873,78.37673232440001,599.281848,5.563367999999945,5.566360000000047
193,6.472766666666757,0.0274263400805944,0.0673695420694031,-0.2911466098619585,17.4392403745,78.37673319193334,599.2791786666667,5.587392000000047,5.546339999999961
194,6.50613333333331,0.1036989705356967,-0.250621228256446,-0.0172949946762304,17.4392418576,78.37673405946667,599.2752213333334,5.597984000000027,5.534906666666652
195,6.539500000000089,0.0873269435560553,0.486155484554384,0.2044728434498496,17.439243258999998,78.376734927,599.265545,5.548934999999816,5.561600000000101
196,6.572866666666641,0.1586368477091794,0.2904224352176938,0.3127866524658283,17.4392446604,78.37673579453335,599.2558686666667,5.49988599999994,5.588293333333366
197,6.606233333333421,0.2168903088374491,-0.1466666666665542,0.3687681931069304,17.43924608673333,78.37673666206668,599.247252,5.470347333333615,5.600649999999745
198,6.639599999999973,0.0655165069208474,0.3861554845595126,0.0778274760346348,17.4392476216,78.3767375296,599.243248,5.525736000000017,5.550599999999985
199,6.672966666666753,0.0443734469275817,0.2646503372485669,0.045892793748241,17.439249156466666,78.37673839713334,599.239244,5.581124666666796,5.500549999999884
200,6.706333333333305,0.1003904863325457,-0.810720624777022,0.0045438409646492,17.439250672333333,78.376739252,599.2354933333334,5.618780000000078,5.470766666666551
201,6.739700000000084,0.1835356762503286,-0.453056443026717,0.144834930774517,17.4392521071,78.37674005279999,599.2328239999999,5.580741999999915,5.527490000000127
202,6.773066666666637,0.0587575434867269,0.2436634717734511,-0.0755697550589215,17.439253541866666,78.3767408536,599.2301546666666,5.54270400000001,5.5842133333333175
203,6.806433333333416,0.0337025204123392,0.4453390131355799,-0.1521334753269622,17.4392549895,78.37674166083333,599.2254909999999,5.516374666666748,5.622279999999856
204,6.839799999999968,0.0872417465396692,-0.3383599574028314,-0.0982747603812712,17.439256491,78.376742495,599.2124779999999,5.539063999999972,5.5822400000000485
205,6.873166666666748,0.0602768903083064,0.1652822151209209,-0.2110756123541971,17.4392579925,78.37674332916667,599.1994649999999,5.561753333333352,5.542199999999967
206,6.9065333333333,0.042925097621977,0.7610791622316981,-0.1322541711025455,17.4392594744,78.37674415026667,599.188804,5.565365333333598,5.51457333333325
207,6.93990000000008,0.0788711395097606,-0.4387859424890528,-0.193759318427311,17.4392608758,78.3767449177,599.187803,5.490623999999944,5.537930000000017
208,6.973266666666632,-0.0067873624396554,-0.0132197373099619,-0.3595740149025122,17.4392622772,78.37674568513333,599.1868020000001,5.415882666666799,5.561286666666625
209,7.006633333333411,-0.0062477813277665,-0.1488036918706892,-0.296691515797207,17.439263698500003,78.37674645256666,599.184408,5.363164000000091,5.565406666666481
210,7.039999999999964,0.1320553780617678,-0.3610223642172524,0.2332268370607028,17.4392652,78.37674722,599.1764000000001,5.3992,5.492
211,7.073366666666743,-0.0863116790907662,1.209059282924944,-0.153120340786296,17.4392667015,78.37674798743333,599.168392,5.435236000000155,5.4185933333330185
212,7.106733333333295,-0.0376286829959336,0.7302094426665201,-0.1596734114310196,17.439268189533333,78.3767487616,599.1594413333333,5.46292266666666,5.366733333333378
213,7.140100000000075,0.0516293929687819,-0.8803194888123356,-0.0434717784917279,17.4392696243,78.3767495624,599.146762,5.457583999999983,5.400100000000111
214,7.173466666666627,0.0927795527163464,-0.3693574724880128,0.2308697195616046,17.43927105906667,78.3767503632,599.1340826666667,5.452245333333342,5.433466666666618
215,7.206833333333407,-0.0102591409305775,0.402307419241831,0.0076677316286567,17.439272487,78.376751164,599.1232483333333,5.440688333333298,5.459316666666664
216,7.240199999999959,-0.1131842385506626,0.0221086261929108,-0.3241746538843535,17.439273888400002,78.3767519648,599.119578,5.404986000000054,5.455980000000005
217,7.2735666666667385,-0.0222861199871132,-0.8327156549538434,-0.1885410010677599,17.4392752898,78.3767527656,599.1159076666667,5.369283666666568,5.452643333333324
218,7.306933333333291,0.0910188143409813,-0.4656017039337757,0.2827121050758057,17.439276705066668,78.37675355253333,599.1088400000001,5.3476559999999935,5.44237333333334
219,7.34030000000007,0.034270500534124,1.0340149094486926,0.4054526091528525,17.439278173199998,78.3767542866,599.0888199999999,5.379688000000058,5.405669999999933
220,7.373666666666622,0.0311679091233775,0.189847355340629,0.2893148739791524,17.439279641333332,78.37675502066666,599.0688000000001,5.411719999999905,5.368966666666776
221,7.407033333333402,0.0184948526800335,-0.2202555910539295,0.1317287894922308,17.43928110243333,78.3767557688,599.0499756666667,5.432639333333343,5.347033333333317
222,7.440399999999954,0.1211501597416581,0.1251118211024179,0.2229179978677692,17.4392825372,78.37675656959999,599.0356280000001,5.411952000000063,5.3803999999999
223,7.473766666666734,0.0465388711392098,-0.2591480298086874,0.2260915867917597,17.439283971966667,78.3767573704,599.0212803333333,5.39126466666664,5.41376666666671
224,7.507133333333286,0.0244515441969332,-1.231608093713481,0.1322683706095857,17.4392853996,78.37675816406666,599.0057913333334,5.37157600000002,5.435720000000025
225,7.5405000000000655,0.2345047923372565,0.6194888178601614,0.8276890308956873,17.439286800999998,78.37675893149999,598.986105,5.355559999999951,5.415699999999939
226,7.573866666666618,0.222875399361619,0.4761803336876203,0.7136954206618771,17.4392882024,78.37675969893333,598.9664186666666,5.339543999999991,5.395679999999989
227,7.607233333333397,-0.0234717784862884,-0.0216400425976411,0.1817181398694891,17.4392896038,78.3767604519,598.948179,5.320851666666544,5.376383333333261
228,7.640599999999949,0.0649201277958293,0.1308200212954267,0.3533120340755837,17.4392910052,78.3767611526,598.935166,5.292490000000012,5.359700000000007
229,7.673966666666729,0.1162229321970179,-0.1280156194559649,0.3034007809697537,17.4392924066,78.3767618533,598.922153,5.264128333333288,5.3430166666666405
230,7.707333333333281,-0.1007454739088199,0.8456514021987082,-0.2294639687615711,17.43929383,78.37676255400001,598.9116333333334,5.249993333333234,5.323400000000082
231,7.740700000000061,0.0057720979767596,-0.5696911608048824,-0.158764643237661,17.439295331500002,78.3767632547,598.909965,5.286363000000057,5.293369999999953
232,7.774066666666613,0.049471068512099,-0.9371246006315797,-0.1432445864390206,17.439296833,78.3767639554,598.9082966666667,5.322732666666632,5.263340000000029
233,7.8074333333333925,0.2399574014927105,-0.4751792687336515,0.3667589634371385,17.439298319633334,78.37676466353332,598.9084123333334,5.345499333333263,5.248176666666771
234,7.840799999999945,0.0800851970160122,0.7479872204550252,0.1256230031906864,17.4392997544,78.3767653976,598.914752,5.320808000000048,5.284879999999928
235,7.874166666666724,0.1583599573997717,0.0433084842085415,0.0733404330807417,17.439301189166667,78.37676613166667,598.9210916666667,5.2961166666666655,5.321583333333336
236,7.9075333333332765,0.1879162229321301,-0.5379055733049718,0.0312957046501602,17.439302631466667,78.37676684313334,598.9254726666667,5.273384000000068,5.344726666666765
237,7.940900000000056,0.0682002129928241,0.0001490947816419,-0.0724174653887114,17.4393040996,78.3767674771,598.923137,5.257367999999999,5.321369999999998
238,7.974266666666608,-0.0408377706759238,0.2667518636857938,-0.2161022364151621,17.439305567733335,78.37676811106667,598.9208013333333,5.241352000000039,5.29801333333339
239,8.007633333333388,0.0286261980829992,-0.1704224352141637,-0.1719701810434503,17.439307035866666,78.3767687374,598.9170916666667,5.233122000000034,5.276183333333303
240,8.04099999999994,0.1640042598499366,-0.4170394036165339,0.2526091586778867,17.439308504,78.376769338,598.90875,5.251139999999988,5.259500000000012
241,8.07436666666672,0.1138090166842868,-0.2492793752211391,0.2623145189918724,17.439309972133334,78.3767699386,598.9004083333333,5.269158000000066,5.242816666666607
242,8.107733333333272,0.149989350372824,0.056656017039113,0.3595172168972503,17.4393114248,78.37677054693333,598.9005733333333,5.268151999999964,5.233866666666676
243,8.141100000000051,0.2666666666669379,0.2584664536705279,0.4810862619784847,17.439312826200002,78.3767711809,598.9289350000001,5.204087999999834,5.250550000000043
244,8.174466666666603,0.2045438409626733,0.2804827831046783,0.0980049698205597,17.4393142276,78.37677181486667,598.9572966666666,5.140024000000142,5.267233333333297
245,8.207833333333383,0.2009229676960983,0.15335463258815,0.3741569045095367,17.439315660333335,78.37677242533333,598.9788433333333,5.10235833333335,5.265116666666645
246,8.241199999999935,0.2306283280096432,-0.6027263045769764,0.1099467518674525,17.4393171952,78.3767729592,598.978176,5.150739999999894,5.2017200000001385
247,8.274566666666715,0.3012850550233272,-0.7201845935412512,0.1336244231450684,17.439318730066667,78.37677349306666,598.9775086666666,5.199121666666769,5.138323333333199
248,8.307933333333267,0.1963365282206986,0.6768335108309438,0.0899254526078413,17.439320241133334,78.37677401900001,598.9773966666667,5.2271940000000345,5.101899999999953
249,8.341300000000047,0.3237699680484971,0.1712673056561713,0.4198083067054296,17.4393216759,78.3767745195,598.979065,5.19015699999996,5.1519500000000535
250,8.374666666666599,0.460844870427546,-0.6877529286408723,0.5588924387599554,17.439323110666667,78.37677502,598.9807333333333,5.153120000000138,5.201999999999813
251,8.408033333333378,0.2629534966272234,0.7283635072785883,0.2571175008869232,17.439324545433333,78.37677551246666,598.981036,5.122509666666678,5.2311633333333765
252,8.44139999999993,0.3059850905216574,-0.3476038338691078,0.2783386581439235,17.4393259802,78.3767759796,598.977032,5.112166000000038,5.194460000000135
253,8.47476666666671,0.3209371671977842,-0.167397941072331,0.315520056794365,17.439327414966666,78.37677644673333,598.973028,5.101822333333328,5.157756666666645
254,8.508133333333262,0.2521405750793976,0.3688746893947081,-0.0763507277232639,17.439328866,78.37677691386666,598.9688613333334,5.09790399999997,5.126746666666692
255,8.541500000000042,0.3101171458988764,-0.9328008519706896,0.2165069222528054,17.4393303675,78.376777381,598.96419,5.113920000000038,5.113399999999968
256,8.574866666666594,0.2477387291424898,0.6134895278815989,0.2792474263326227,17.439331869,78.37677784813334,598.9595186666667,5.129935999999998,5.100053333333335
257,8.608233333333374,0.0688249911232539,2.3594391196505606,-0.3421441249598866,17.43933336226667,78.3767782988,598.9548473333333,5.1408473333333164,5.094116666666727
258,8.641599999999926,0.2379552715635483,-1.5907135250455404,-0.0939297124663111,17.4393348304,78.3767786992,598.950176,5.136176000000006,5.11079999999998
259,8.674966666666705,0.1786723464666479,-0.2663542775998978,-0.058587149451767,17.439336298533334,78.3767790996,598.9455046666667,5.131504666666663,5.1274833333333465
260,8.708333333333258,0.2690095846642462,-0.3135960241340862,0.2074547390822917,17.439337766666664,78.3767795,598.9370833333334,5.119583333333448,5.139166666666678
261,8.741700000000037,0.1648988285434128,0.1644941426981623,0.0900319488864528,17.4393392348,78.37677990040001,598.917397,5.085882999999971,5.135829999999997
262,8.77506666666659,0.0874263400807498,1.2109194178132578,-0.2154490592759913,17.439340702933332,78.37678030080001,598.8977106666667,5.052182666666722,5.132493333333339
263,8.808433333333369,0.2998083067096719,-0.2400851970117989,0.0738090166883937,17.439342162633334,78.3767807012,598.8895780000001,5.0285180000000125,5.121566666666597
264,8.841799999999921,0.2789350372737186,-0.2324174653889321,0.3915654952076638,17.4393435974,78.3767811016,598.9156039999999,5.034523999999983,5.08820000000009
265,8.8751666666667,0.1352147674841002,0.67813276535278,-0.1252751153681789,17.439345032166667,78.376781502,598.94163,5.040529999999996,5.054833333333357
266,8.908533333333253,0.2372310969163269,-0.1663613773803683,0.2127653532205772,17.439346458400003,78.37678187680001,598.9590373333334,5.028530666666983,5.030853333333317
267,8.941900000000032,0.3080511182106059,-0.942364217253297,0.3196166134173874,17.4393478598,78.37678217710001,598.951363,4.964133000000039,5.034189999999998
268,8.975266666666585,0.2005821796234509,0.3952573660042872,0.0829676961362157,17.4393492612,78.3767824774,598.9436886666667,4.899735333333536,5.037526666666657
269,9.008633333333364,0.2748242811501452,-0.0792687255939342,0.330181043663462,17.439350671233335,78.37678275180001,598.9339423333333,4.852345333333335,5.023596666666593
270,9.041999999999916,0.3450479233226837,-0.0617678381256656,0.3972310969116081,17.439352106,78.376782952,598.91826,4.853679999999998,4.960200000000087
271,9.075366666666696,0.2741001064962591,-0.4026482073142039,-0.1877813276543411,17.439353540766668,78.3767831522,598.9025776666666,4.855014666666671,4.896803333333147
272,9.108733333333248,0.2393610223639847,-0.1648846290378157,0.0409513667016359,17.439354984266668,78.3767833786,598.892572,4.864645999999993,4.8508733333333325
273,9.142100000000028,0.2714164004265517,-0.1377635782764166,0.0784451544206946,17.439356452400002,78.3767836789,598.8985779999999,4.8976790000000605,4.854210000000006
274,9.17546666666658,0.2738374156924138,-0.1862122825708951,-0.1644160454346489,17.439357920533332,78.3767839792,598.904584,4.930711999999902,4.857546666666657
275,9.20883333333336,0.1348952786639552,0.1018814341541794,-0.3894213702549146,17.439359388666666,78.37678426183334,598.9078516666666,4.9534100000000025,4.86794999999999
276,9.242199999999912,0.0840042598513216,0.266751863683105,-0.1841533546314933,17.4393608568,78.3767844954,598.903514,4.9474040000000175,4.897979999999914
277,9.275566666666691,0.1832019879299626,-0.0959815406465086,-0.0902165424221801,17.439362324933334,78.37678472896667,598.8991763333333,4.941397999999992,4.928010000000043
278,9.308933333333243,0.1574582889591631,0.6058501952471311,-0.0611572594974931,17.4393637752,78.37678495360001,598.8958213333333,4.925297333333408,4.9491066666666725
279,9.342300000000023,0.1040894568711191,0.3738658146918189,-0.2911608093671971,17.439365176600003,78.3767851538,598.8951539999999,4.881586999999986,4.94577
280,9.375666666666575,0.0950656727003931,0.1752218672267592,-0.335676251335746,17.439366578,78.37678535399999,598.8944866666667,4.837876666666863,4.942433333333349
281,9.409033333333355,0.2229818956353041,-0.6358253461207702,-0.2098260560879658,17.4393680065,78.3767855271,598.8887606666667,4.816839999999926,4.928256666666747
282,9.442399999999907,0.1648562300278808,0.0848562300430681,-0.2054100106594873,17.439369508,78.3767856272,598.8694080000001,4.856879999999825,4.884880000000189
283,9.475766666666686,0.0443663471778506,0.9226979055739272,-0.431153709619883,17.4393710095,78.37678572729999,598.8500553333333,4.896919999999997,4.841503333333336
284,9.509133333333239,0.2215406460800766,-0.7245438409784934,-0.2639687610900846,17.4393724836,78.37678583653333,598.833534,4.915953333333428,4.820959999999896
285,9.542500000000018,0.2874334398297802,-0.7774227902027304,0.1534611288597343,17.439373885,78.37678597,598.824525,4.879249999999938,4.861000000000068
286,9.575866666666798,0.1618743343957777,0.453574724887013,0.1395243166395827,17.4393752864,78.37678610346666,598.8155159999999,4.842546666666446,4.90104000000024
287,9.609233333333123,0.2227476038349815,-0.3645864394760028,0.0822861199881767,17.4393766878,78.3767862277,598.8097386666667,4.809444333333266,4.919843333333229
288,9.642599999999902,0.2592545260919161,-0.2798722044881469,0.1769542066015678,17.439378089199998,78.37678632779999,598.812408,4.785753999999884,4.8831399999998215
289,9.675966666666909,0.3358679446222152,0.2491870784452197,0.7190344337943472,17.4393794906,78.3767864279,598.8150773333333,4.762063666666665,4.846436666666664
290,9.709333333333689,0.0944266950645426,1.6301739439353995,0.0307419240374274,17.439380892,78.37678653733333,598.8160666666666,4.743879999999989,4.813466666666603
291,9.742700000000013,0.2585516506943615,-0.4078168264057145,-0.0089669861494261,17.4393822934,78.3767866708,598.81273,4.739875999999999,4.790109999999995
292,9.776066666666793,0.1655378061744282,-0.691643592461411,-0.1539226127164071,17.4393836948,78.37678680426666,598.8093933333333,4.735871999999982,4.766753333333228
293,9.809433333333118,0.1649272275473974,-0.8330777422790899,-0.3410365637196369,17.439385086766666,78.37678690943333,598.8052076666667,4.724981666666628,4.7481133333333245
294,9.842799999999897,0.0597231096917187,0.1415122470690627,-0.4773588924389854,17.4393864548,78.3767869428,598.798868,4.696619999999904,4.741439999999978
295,9.876166666666904,0.1384451544193531,0.036208732696099,-0.0172168974087278,17.439387822833332,78.37678697616666,598.7925283333334,4.668258333333374,4.734766666666677
296,9.909533333333684,0.2091160809365298,-0.3950159744541873,-0.0478381256720659,17.43938920993333,78.37678703813333,598.7903833333334,4.650764666666678,4.722373333333301
297,9.942900000000009,0.0602555910547537,0.8989776357810672,-0.1960809371665889,17.4393906447,78.3767871716,598.798725,4.660440999999987,4.695680000000035
298,9.976266666666788,0.1473056443019845,0.0209868654622337,-0.2059069932558624,17.439392079466668,78.37678730506666,598.8070666666667,4.670117333333362,4.668986666666587
299,10.009633333333113,0.1583386581469939,-0.7784948526805744,0.0066453674119372,17.4393934757,78.37678739036666,598.8068346666666,4.6627426666666425,4.652890000000005
300,10.042999999999893,0.127156549518907,0.4536741214024576,0.2932907348280392,17.439394777,78.376787357,598.7854799999999,4.613359999999764,4.662900000000048
301,10.0763666666669,0.1844373446928259,0.0572452964134906,0.3477245296409185,17.4393960783,78.37678732363334,598.7641253333333,4.563977333333222,4.672910000000022
302,10.10973333333368,-0.006702165421429,-0.1486971956172789,-0.1900319488790461,17.439397389333333,78.37678730973333,598.749292,4.522965333333212,4.665399999999705
303,10.143100000000004,0.0115654952074593,0.216102236424166,-0.3214270500542603,17.439398724,78.3767873431,598.7502929999999,4.502277999999977,4.615349999999946
304,10.176466666666784,-0.0780688675896259,0.0406673766433452,-0.3204969826051723,17.439400058666667,78.37678737646667,598.7512939999999,4.4815906666666026,4.565299999999845
305,10.209833333333108,0.0133830315934018,0.6610578629741017,-0.2134895278697371,17.439401393333334,78.37678739016667,598.7462966666667,4.463951666666677,4.524100000000021
306,10.243199999999888,0.0376570820038655,0.2812353567751784,-0.0731416400353302,17.439402728,78.3767873568,598.7269439999999,4.453607999999966,4.504079999999934
307,10.276566666666895,0.0770465033734441,-0.4987717429934476,-0.0724316648905309,17.439404062666668,78.37678732343333,598.7075913333333,4.4432643333333255,4.484059999999985
308,10.309933333333447,-0.0016613418552724,0.1326375576898847,-0.3058288960030948,17.439405377466667,78.37678730993333,598.6893313333333,4.423285333333147,4.467019999999956
309,10.3433,0.0942705005323302,-0.7355484558042367,-0.1726304579344275,17.4394066454,78.3767873433,598.673649,4.380576000000018,4.457010000000004
310,10.376666666666779,-0.1810436634708583,1.04650337236902,-0.5676251331227138,17.439407913333334,78.37678737666667,598.6579666666667,4.337866666666598,4.446999999999984
311,10.410033333333104,-0.0070997515069214,-0.6131700390599091,-0.4561022364220448,17.439409171233333,78.37678738996667,598.6443913333334,4.302180666666716,4.426956666666777
312,10.44340000000011,-0.0217678381274962,-0.3931842385593508,-0.2924387646532623,17.4394104058,78.3767873566,598.635716,4.282827999999966,4.383579999999923
313,10.47676666666689,0.1152573659929315,-0.0427689030852459,0.1444018459371731,17.439411640366664,78.37678732323333,598.6270406666666,4.263475333333348,4.340203333333366
314,10.510133333333442,0.0453390131383888,0.2766347177784461,0.2005679801258614,17.439412874933332,78.37678728986667,598.615832,4.240170666666552,4.303919999999929
315,10.543499999999995,0.1211927582521631,-0.2965921192751957,0.1659211927552121,17.4394141095,78.3767872565,598.598815,4.207804999999967,4.28389999999998
316,10.576866666666774,0.0069293574702426,0.2110046148365693,0.1161519346759547,17.439415344066667,78.37678722313333,598.5817979999999,4.175439333333161,4.263879999999894
317,10.610233333333099,0.0258643947470045,0.3724884629099036,-0.07119630812293,17.439416578633335,78.37678722046667,598.5705116666667,4.150543999999983,4.239766666666597
318,10.643600000000106,-0.148796592121426,0.52894568690985,-0.3933120340834758,17.439417813200002,78.3767872872,598.57218,4.142535999999967,4.206399999999863
319,10.676966666666885,0.0041320553781934,-0.8097621583245297,-0.2348384806528503,17.439419047766666,78.37678735393332,598.5738483333333,4.134528000000005,4.173033333333357
320,10.710333333333438,-0.1530706425272048,-0.578274760385808,-0.4032658856936778,17.439420251333335,78.37678737933334,598.5721066666667,4.116186666666581,4.14793333333332
321,10.74369999999999,-0.0156336528202915,0.6239616613329179,-0.0583173588903175,17.4394213858,78.3767873126,598.562764,4.074812000000019,4.141260000000004
322,10.77706666666677,-0.1060276890341111,-0.0297337592840626,-0.2436350727723896,17.439422520266668,78.37678724586667,598.5534213333333,4.033437333333176,4.1345866666666415
323,10.810433333333094,-0.0614128505526845,-0.7629676961273475,-0.2956833510865276,17.4394236756,78.37678721043333,598.541992,4.004269666666665,4.116436666666641
324,10.843800000000101,-0.0742066027688836,-0.3443663471756307,-0.1264323748643807,17.4394248768,78.3767872438,598.525976,4.001933999999994,4.073059999999887
325,10.87716666666688,0.0409300674481106,-0.1621228257023079,0.3333333333343019,17.439426078,78.37678727716667,598.5099600000001,3.9995983333333385,4.029683333333429
326,10.910533333333433,-0.0050692225786355,-0.2277316293872062,0.2797586084468239,17.4394272476,78.37678728946666,598.4981573333333,3.979882666666636,4.0
327,10.943899999999985,0.0103301384457113,-0.0755697550593575,0.379148029820259,17.4394283487,78.3767872561,598.495488,3.9224920000001138,4.0
328,10.977266666666765,0.0339226127081709,-0.0270784522543421,0.453986510471449,17.439429449800002,78.37678722273333,598.4928186666666,3.8651013333332,4.0
