frame,timestamp_s,gyro_x,gyro_y,gyro_z,gps_lat,gps_lon,gps_alt_m,speed_2d_mps,speed_3d_mps
0,0.0215000000002874,0.1383386581446111,-0.1015974441075886,0.0830670926517571,17.407879126,78.4015494765,539.1184949999999,5.558119999998674,5.722799999999754
1,0.05486666666683959,0.0934327298547908,-0.1771529996642187,0.0570962016341851,17.4078779248,78.40154850886667,539.1161593333334,5.413975999999037,5.696106666666489
2,0.08823333333339178,0.0622080227192461,-0.1815690450824715,-0.0904721334740988,17.4078767236,78.40154754123333,539.1138236666667,5.269831999999401,5.669413333333223
3,0.12159999999994398,0.0166560170392176,-0.1081576144850738,-0.0356123535680784,17.407875414400003,78.4015465088,539.082976,5.265872000000119,5.567119999999766
4,0.15496666666695091,0.0298331558360225,0.1520695775341575,-0.0402697905640355,17.40787404636667,78.40154544106666,539.0365963333328,5.338277666667589,5.423643333331506
5,0.18833333333304836,0.035498757542033,0.0195953141402935,0.2054668086665202,17.407872678333334,78.40154437333334,538.9902166666662,5.410683333334074,5.280166666665201
6,0.2217000000000553,-0.0217252396168845,0.0721618743214891,-0.2488604898742298,17.4078713754,78.4015433707,538.9399309999998,5.418422999999872,5.277740000000349
7,0.2550666666666075,0.0012637557690285,0.4924387646520708,-0.1994746183882324,17.407870107466668,78.40154240306667,538.8875453333335,5.391396000000063,5.351146666666496
8,0.28843333333361443,0.0722541711029743,0.8128505502147152,-0.0494000709933669,17.407868839533336,78.40154143543333,538.8351596666664,5.364368999999886,5.424553333333645
9,0.3218000000001666,0.0354419595319161,-0.031991480294691,-0.0238977635795997,17.4078675716,78.4015405332,538.7997780000001,5.30791199999999,5.434739999999997
10,0.3551666666667188,0.0374511892082162,-0.1597444089398753,-0.0958466453691555,17.40786630366667,78.40153966566668,538.7734183333334,5.235840000000172,5.411383333333389
11,0.388533333333271,0.1096485623004279,0.1036989705350187,-0.0340930067433717,17.407865035733334,78.40153879813333,538.7470586666668,5.163768000000354,5.388026666666781
12,0.42190000000027794,0.0960596379140677,-0.2974440894458853,0.0778913738089952,17.4078637459,78.4015381058,538.7180709999999,5.091914999999555,5.331819999999545
13,0.45526666666683013,0.102974795882782,-0.1654100106609634,-0.056769613051863,17.4078624446,78.4015375052,538.6877073333333,5.020176666666403,5.258413333333063
14,0.4886333333333823,0.1638764643236866,-0.0048562300350792,0.0457365992191719,17.4078611433,78.4015369046,538.6573436666666,4.94843833333325,5.185006666666582
15,0.5219999999999345,0.2244941427052571,0.1982960596392105,0.2500532481333707,17.407859886,78.401536106,538.6393,4.923340000000001,5.113800000000095
16,0.5553666666669415,0.155605253814453,-0.9542563009981492,0.2355271565490868,17.407858651433333,78.40153520509999,538.6276216666665,4.92233899999999,5.043729999999317
17,0.5887333333330389,0.1814270500531783,0.5141214057499736,-0.091757188497984,17.407857416866666,78.4015343042,538.6159433333332,4.921337999999993,4.973659999999494
18,0.6221000000000458,0.1704579339745696,0.029968051135556,0.0445367412200664,17.4078562044,78.4015334475,538.609569,4.892048999999795,4.95
19,0.655466666666598,0.1347532836352729,-0.1973730919377785,-0.1214483493092154,17.4078550032,78.40153261333333,538.6058986666667,4.848338666666572,4.95
20,0.688833333333605,0.0374156904509697,-0.2940717075005434,-0.2778842740391534,17.407853802,78.40153177916667,538.6022283333333,4.804628333332753,4.95
21,0.7222000000001572,0.1250692225766945,0.2462193823136182,-0.041746538869241,17.4078525564,78.4015310116,538.5954499999999,4.788667999999984,4.921139999999665
22,0.7555666666667094,0.1454739084137092,0.1553709620179746,-0.1909478168241445,17.407851288466667,78.40153027753334,538.5871083333334,4.786665999999999,4.877763333333305
23,0.7889333333332615,0.1474334398295749,0.4340504082351253,-0.2175363862261463,17.40785002053333,78.40152954346668,538.5787666666668,4.784664000000013,4.834386666666944
24,0.8223000000002685,0.1358040468569497,-0.3367625133154086,-0.0349307774243011,17.4078487749,78.401528854,538.569533,4.771065999999938,4.81776999999999
25,0.8556666666668207,0.0866169684026834,-0.0678026269366635,-0.2271920482745004,17.407847540333332,78.40152818666667,538.5598566666666,4.75171333333332,4.814433333333331
26,0.8890333333333729,0.0500603478872246,0.1745189918342732,-0.3172381966671047,17.407846305766668,78.40152751933333,538.5501803333334,4.732360666666702,4.811096666666672
27,0.9223999999999251,0.0132907348247692,0.1301810436680744,-0.00025559105601,17.4078451608,78.4015270536,538.5297520000001,4.6325920000006064,4.796560000000087
28,0.955766666666932,-0.1298402555895201,-0.3220447284134091,-0.1673127440464147,17.4078440597,78.40152668656667,538.5040596666665,4.493452999999062,4.776539999999865
29,0.9891333333330294,-0.1771388001418658,-0.380731274405184,-0.4532481363151514,17.4078429586,78.40152631953333,538.4783673333333,4.3543139999994125,4.756519999999916
30,1.0225000000000364,-0.1660276890303705,-0.1342917997842275,-0.4060702875396358,17.4078418575,78.401525705,538.47045,4.295949999999968,4.657749999999767
31,1.0558666666665886,-0.1245154419594577,-0.1199290024817968,-0.3508271210474752,17.4078407564,78.40152497093334,538.4711173333334,4.276597333333349,4.520946666666778
32,1.0892333333335955,-0.1119133830321336,0.1297479588292544,-0.1771388001434156,17.4078396553,78.40152423686666,538.4717846666666,4.257244666666468,4.3841433333319255
33,1.1226000000001477,-0.124387646433014,0.3581682640986527,-0.309392971246049,17.4078385768,78.40152345759999,538.4681579999999,4.252582000000018,4.326439999999844
34,1.1559666666667,-0.0773517926871848,0.1219808306711086,-0.1434930777421124,17.407837509066667,78.4015226568,538.4624856666667,4.254917666666679,4.306419999999895
35,1.189333333333252,-0.0492722754706038,0.1068512602042138,0.0799432019881369,17.407836441333334,78.401521856,538.4568133333333,4.25725333333334,4.286399999999945
36,1.222700000000259,-0.1578061767836149,-0.0208306709346845,-0.2001064962683493,17.407835419,78.4015211914,538.4620370000001,4.201930999999115,4.282270000000036
37,1.2560666666668112,-0.1784451544207459,-0.0027405040880252,-0.1324671636492296,17.407834418,78.4015205908,538.4723806666667,4.119515333333031,4.285606666666679
38,1.2894333333333634,-0.1051118210857195,0.2289598864080619,-0.1492225772121841,17.407833417000003,78.4015199902,538.4827243333333,4.037099666666947,4.288943333333322
39,1.3227999999999156,-0.1027902023442197,-0.0871139510219427,0.0588711395085828,17.4078324388,78.40151934400001,538.4677600000002,3.9882000000002455,4.233000000000614
40,1.3561666666669225,-0.0858359957406139,0.2629037983649843,-0.1251331203409332,17.407831471166666,78.40151867666667,538.4410666666665,3.954833333333208,4.1495833333330205
41,1.38953333333302,-0.1099609513656276,-0.3913383031546369,-0.1188356407509825,17.407830503533333,78.40151800933333,538.4143733333333,3.9214666666666256,4.066166666666565
42,1.422900000000027,-0.0898828540982467,0.0934824281233612,-0.0273056443011011,17.4078296046,78.4015172733,538.402336,3.885810000000048,4.019390000000039
43,1.4562666666665791,-0.0005395811153209,1.4388924387575377,0.1923322683703358,17.407828737066666,78.40151650586667,538.3969973333333,3.849106666666807,3.9893600000001146
44,1.489633333333586,-0.2247426340053947,-0.4365992189836447,0.156215832447489,17.407827869533335,78.40151573843333,538.3916586666666,3.812403333333066,3.959329999999781
45,1.5230000000001382,-0.229818956331356,-0.2809371671913606,-0.238764643227549,17.407826979,78.401515201,538.3605599999997,3.7586799999997074,3.924699999999825
46,1.5563666666666904,-0.2700248491321698,0.2582037628550598,-0.3946254881076747,17.4078260781,78.40151476723334,538.3178506666666,3.697285333333195,3.887996666666584
47,1.5897333333327879,-0.166900958469801,1.0185445509361493,-0.1518352857652422,17.407825177200003,78.40151433346666,538.2751413333333,3.635890666666684,3.8512933333333432
48,1.6230999999997948,-0.1061128860458965,1.6611075612393431,0.1847497337539486,17.407824391800002,78.40151380729999,538.2312769999995,3.561328999999129,3.798419999999349
49,1.6564666666668018,-0.2190131345404563,-0.1503443379491545,-0.0434220802274193,17.407823657733335,78.40151324006666,538.1868993333329,3.480915333332665,3.738359999999501
50,1.689833333333354,-0.1947816826422407,0.0553425630141592,-0.2486687965890681,17.407822923666668,78.40151267283333,538.1425216666664,3.4005016666662007,3.678299999999653
51,1.7231999999999061,-0.1942492012776453,0.4007241746628135,-0.352417465390478,17.4078221896,78.4015120824,538.1174,3.343055999999995,3.606639999999992
52,1.756566666666913,-0.2130209442676531,-0.0587220447370625,-0.3346538871136875,17.407821455533334,78.4015114818,538.1007166666666,3.2956753333330173,3.529896666666155
53,1.7899333333330105,-0.2781824636186189,-0.8909336173597708,0.0132907348202672,17.407820721466667,78.4015108812,538.0840333333333,3.248294666666685,3.4531533333333644
54,1.8233000000000175,-0.165708200212915,-0.4572310969099111,0.4335676251339572,17.4078199874,78.4015103272,538.0480110000002,3.213496000000126,3.397380000000201
55,1.8566666666665697,-0.2526091586795818,0.2482073127369962,-0.1984380546673763,17.407819253333333,78.40150979333333,538.0036333333336,3.1841333333335333,3.350666666666985
56,1.8900333333335766,-0.3102094426702788,-0.0311679091255569,-0.4438977635927104,17.407818519266666,78.40150925946666,537.9592556666665,3.1547706666665407,3.303953333333133
57,1.9234000000001288,-0.1952289669919708,-0.465729499454931,0.2420873269401708,17.407817808599997,78.4015086086,537.952318,3.1312579999999626,3.271279999999953
58,1.956766666666681,-0.2772310969125147,-0.2987859424992655,-0.2139439119615199,17.407817107899998,78.4015079079,537.961327,3.110237000000016,3.2445866666666867
59,1.9901333333327784,-0.1255662051857837,0.3215477458151292,0.0254029108948357,17.4078164072,78.4015072072,537.970336,3.089216000000069,3.2178933333334205
60,2.0234999999997854,-0.1384451544182393,0.2167199148172684,0.2188498402573828,17.40781573,78.4015066475,537.9466799999997,3.0449299999995767,3.193549999999817
61,2.0568666666667923,-0.0908342208025418,0.0998793042167946,0.3770252041172024,17.407815062666668,78.40150614699999,537.9093093333331,2.9908759999997128,3.1701933333332093
62,2.0902333333333445,-0.0526801561942812,0.3960454383978447,0.2679517216894134,17.407814395333332,78.4015056465,537.8719386666666,2.936821999999849,3.146836666666601
63,2.1235999999998967,-0.3959105431339658,-4.305388711410474,-0.291970181049041,17.407813728,78.4015050752,537.840468,2.926900000000002,3.102239999999985
64,2.1569666666669036,-0.0518636847727183,0.0125878594382903,1.0477529286394078,17.407813060666665,78.4015044746,537.8114389999996,2.935241666666762,3.0488533333327257
65,2.190333333333001,-0.0918707845163944,-0.8521121760316333,0.7744408945879067,17.407812393333334,78.401503874,537.7824099999997,2.9435833333334074,2.9954666666661938
66,2.223700000000008,-0.1536528221516276,0.0892438764606043,-0.1370394036201914,17.4078117734,78.40150336820001,537.7806360000001,2.894807999999776,2.987110000000031
67,2.25706666666656,-0.2258004969827295,0.2383102591404573,-0.1083990060343781,17.4078111728,78.40150290106668,537.7899786666667,2.822736000000285,2.9971199999999603
68,2.290433333333567,-0.1546112886055729,0.0571317003492145,0.1578132765522494,17.4078105722,78.40150243393333,537.7993213333334,2.7506639999998126,3.007130000000026
69,2.3238000000001193,-0.1392545260916565,1.16072417465546,-0.1877316293964736,17.407810042999998,78.4015018478,537.81985,2.6954900000000594,2.9576400000000898
70,2.3571666666666715,-0.3261270855545917,-0.5425985090770271,-0.910188143418758,17.4078095425,78.40150121383334,537.8448749999999,2.647108333333515,2.8842333333336083
71,2.3905333333332237,-0.3899183528540921,-1.91422080221432,-0.4206176783708076,17.407809042,78.40150057986666,537.8698999999998,2.5987266666669697,2.810826666667127
72,2.423899999999776,-0.0568690095851293,0.5302449414232532,0.1533333333293195,17.4078086371,78.4015002088,537.8617039999998,2.460958999999162,2.754149999999758
73,2.457266666666783,-0.0521121760732433,-0.1317003905368281,0.46121405751271,17.407808270066667,78.40149994186666,537.8403493333333,2.287785999999598,2.704099999999884
74,2.490633333333335,-0.2447852325172596,1.4030173943949609,-1.1242527511579856,17.407807903033333,78.40149967493333,537.8189946666666,2.1146130000000354,2.6540500000000105
75,2.5239999999998872,-0.2726304579339723,-0.1703940362087327,-0.5015974440894568,17.407807488,78.401499312,537.80916,2.037440000000108,2.5200000000004548
76,2.557366666666894,-0.3175079872199707,0.8471352502794249,0.396577919792293,17.407807054233334,78.4014989116,537.8038213333333,1.997733666666334,2.3531666666652686
77,2.5907333333329916,-0.3939510117147992,0.4939439119490407,-0.385047923324706,17.407806620466665,78.40149851119999,537.7984826666667,1.9580273333331009,2.186333333332356
78,2.6240999999999985,-0.2235995740134682,0.1062406815709842,0.1478381256742259,17.4078060421,78.40149791799999,537.8170030000001,2.050148000000477,2.1110799999998666
79,2.6574666666665507,-0.2047000355018802,0.5867234646857875,-0.4148242811790194,17.40780540813333,78.40149725066667,537.8446973333333,2.19295733333345,2.071039999999967
80,2.6908333333335577,-0.1812921547739727,1.7371671992207312,-0.4046148385017488,17.407804774166664,78.40149658333333,537.872391666667,2.33576666666837,2.0309999999995227
81,2.72420000000011,-0.1541214057511706,-1.3220873269468192,0.1057720979704726,17.4078041886,78.4014960128,537.9029900000002,2.383228000000069,2.119220000000835
82,2.757566666666662,0.0840610578767156,0.2219666312372643,0.3883777067933165,17.407803621366668,78.40149547893333,537.9346883333333,2.394572666666656,2.256023333333202
83,2.7909333333332143,-0.0222080227153408,0.7480866170132809,-0.2596805111795399,17.407803054133332,78.40149494506666,537.9663866666664,2.405917333333242,2.392826666665568
84,2.824300000000221,0.1427902023341775,1.7227902022652766,0.2940149094694277,17.4078025112,78.40149441119999,537.979374,2.4150750000000154,2.4348600000000125
85,2.8576666666667734,0.0622648207286527,0.670216542369261,-0.5262335818364786,17.40780197733333,78.40149387733334,537.9853800000001,2.423416666666661,2.441533333333329
86,2.8910333333333256,0.0847142350016483,0.009804756833822,0.281178558749984,17.407801443466667,78.40149334346667,537.991386,2.4317583333333066,2.4482066666666453
87,2.9243999999998778,0.0789776357834759,0.8835782747751988,0.2835782747642731,17.4078010072,78.4014928096,537.9695760000002,2.3891040000003514,2.457319999999943
88,2.9577666666668847,-0.1422293219717459,0.759219027428636,-0.8253958111301143,17.4078006068,78.40149227573333,537.9375439999999,2.327709333333003,2.4673300000000538
89,2.991133333332982,-0.1318565850187713,-0.5733759318602849,0.0428966986236032,17.4078002064,78.40149174186666,537.9055119999999,2.266314666666491,2.4773400000000287
90,3.024499999999989,0.0433439829596374,-0.1640042598574915,0.6565495207593633,17.407799708,78.4014912325,537.902145,2.2509800000000006,2.4358999999999797
91,3.0578666666665413,0.1361164359264111,1.2762513312304118,0.7742279020300155,17.40779917413333,78.401490732,537.9091520000001,2.252314666666664,2.3758400000001307
92,3.0912333333330935,-0.0114376996806098,0.4794533191391981,0.0607880724216147,17.407798640266666,78.4014902315,537.9161590000001,2.253649333333345,2.315779999999464
93,3.1246000000001004,-0.0573801916941973,-0.0707135250247643,0.2259424920098273,17.4077981556,78.4014896818,537.9234120000001,2.2549840000000088,2.3
94,3.1579666666666526,-0.0411359602408542,0.5093503727334828,0.3728789492402894,17.407797688466665,78.40148911456667,537.9307526666668,2.256318666666672,2.3
95,3.191333333333205,-0.0386936457223673,1.0674476393344314,0.0524671636501956,17.407797221333333,78.40148854733334,537.9380933333334,2.257653333333335,2.3
96,3.2247000000002117,0.0742917997830091,0.5573162939458915,0.2269222577006164,17.4077968283,78.401488153,537.930614,2.1814299999990583,2.3
97,3.258066666666764,0.0714944976931877,0.0848846290548575,0.4708271210466964,17.407796461266667,78.40148781933333,537.9179346666667,2.077993333333122,2.3
98,3.291433333333316,0.0251047213362978,0.0002697905663292,-0.0188356407490649,17.407796094233333,78.40148748566666,537.9052553333335,1.9745566666671872,2.3
99,3.3247999999998683,-0.0787646432397259,0.0982747603528919,-0.2668796592244415,17.4077957024,78.4014870776,537.8955520000001,1.9351040000001516,2.225600000000873
100,3.3581666666668752,-0.078700745470683,0.5363507277545458,0.0618743343928042,17.407795302,78.40148664383334,537.8868766666667,1.917753333333292,2.125499999999761
101,3.3915333333329727,0.0296059637914221,1.2453816116433434,0.4804259850906806,17.407794901600003,78.40148621006666,537.8782013333333,1.900402666666669,2.0254000000000136
102,3.4248999999999796,0.0428541001027459,1.0441959531448364,0.0108200212825484,17.4077945012,78.4014856518,537.872265,1.937582999999852,1.9875500000000443
103,3.458266666666532,0.046915157968164,0.785871494479083,-0.1472630458025173,17.4077941008,78.4014850512,537.86726,1.9933053333330448,1.9708666666667527
104,3.491633333333084,-0.0094852680090925,-1.9119488817931125,0.5003833865937628,17.407793700400003,78.40148445060001,537.862255,2.0490276666669973,1.9541833333332344
105,3.525000000000091,0.0044728434516803,-1.5644302449507252,-0.1075612353532756,17.407793350000002,78.40148405000001,537.8862500000001,2.0009999999997183,1.9900000000001816
106,3.5583666666661884,0.2064181753639448,0.1090592829238009,0.2247923322720278,17.407793016333333,78.40148371633333,537.9199503333333,1.9182506666665933,2.0433866666667138
107,3.5917333333331953,0.1861128860490347,0.7009158679186331,0.510500532487686,17.407792682666667,78.40148338266667,537.9536506666666,1.8355013333334689,2.096773333333246
108,3.6251000000002023,-0.0359105431313622,-0.1595314162913255,-0.1043663471778487,17.4077922988,78.4014828733,537.9860960000003,1.8599290000005655,2.04724999999921
109,3.6584666666667545,-0.1988214412496802,0.2011785587519469,-0.6720198793033797,17.4077918984,78.40148230606667,538.0181280000002,1.9196553333337485,1.9638333333327536
110,3.6918333333333067,-0.2591409300644127,-0.1982605608924117,-0.3383031593856762,17.407791498,78.40148173883333,538.0501600000001,1.9793816666669315,1.8804166666662967
111,3.725199999999859,-0.2453248136338397,-0.9920340787693162,-0.0529073482515247,17.4077911732,78.4014811464,538.054472,1.9995439999999889,1.9028399999999133
112,3.758566666666866,-0.3173446929357833,-0.9805608803706488,-0.0402555910536931,17.4077908729,78.4014805458,538.0498006666667,2.0068846666667035,1.9595633333336189
113,3.791933333333418,-0.4859779907699033,-1.331246006379401,-0.7648278310279624,17.4077905726,78.40147994520001,538.0451293333333,2.0142253333333184,2.016286666666551
114,3.82529999999997,-0.4324174653858909,-0.3735463258616169,-0.2569755058490233,17.4077901458,78.4014794205,538.0649989999998,2.0329509999998736,2.035059999999962
115,3.8586666666665224,-0.3559105431308353,0.3099041533585069,-0.1214057508010465,17.407789678666667,78.40147892,538.092693333333,2.055306666666484,2.0417333333332786
116,3.8920333333330746,-0.4143343982952189,0.1611572594966783,-0.498686545960482,17.40778921153333,78.4014784195,538.1203876666667,2.0776623333333992,2.0484066666666862
117,3.9254000000000815,-0.5994036208764153,-1.2899680511499958,-0.5171458998973005,17.407788846,78.40147781739999,538.14224,2.1023040000000104,2.065240000000008
118,3.958766666666179,-0.6355981540646903,-1.0216613418433955,-0.0812850550239316,17.407788512333333,78.40147718343333,538.16226,2.127662666666613,2.0852599999999577
119,3.992133333333186,-0.695818246360401,0.2055236066450344,-0.874959176448212,17.407788178666667,78.40147654946668,538.1822799999999,2.1530213333332155,2.1052799999999072
120,4.025500000000193,-0.8412140575107669,0.6522896699168121,-1.502555910567607,17.4077878195,78.401475992,538.2084200000002,2.156449999999978,2.127850000000151
121,4.058866666666745,-0.6642243521476955,-1.2194391196380296,-0.2073127440513751,17.407787452466668,78.40147545813333,538.2364480000001,2.15311333333332,2.151206666666759
122,4.092233333333297,-0.6016542421022296,-2.337266595666176,0.2282215122471584,17.407787085433334,78.40147492426667,538.2644760000001,2.149776666666662,2.1745633333333667
123,4.125599999999849,-0.2791906283221505,0.0391906283632259,0.0960170394134538,17.4077867952,78.40147436480001,538.2733039999999,2.125704000000033,2.1748800000000075
124,4.158966666666856,-0.1792829250966813,0.7918068867630134,0.5482144124961774,17.407786528266666,78.40147379756667,538.276307,2.095340333333029,2.1682066666666
125,4.1923333333334085,-0.2296769613061927,0.5118920838106128,-0.1632942847023277,17.407786261333335,78.40147323033334,538.27931,2.064976666666439,2.161533333333284
126,4.225699999999961,-0.0524387646425865,1.3023216187506432,0.3268796592112185,17.4077860458,78.4014726374,538.292336,2.0438649999999727,2.136869999999956
127,4.259066666666513,-0.1106993255229764,2.36097976570889,-0.0371033013812048,17.4077858456,78.4014720368,538.3083519999999,2.025513333333436,2.106840000000168
128,4.292433333333065,-0.3419737309143644,-0.0877671281296347,-0.7730209442591762,17.4077856454,78.4014714362,538.3243679999999,2.007161666666649,2.0768099999999707
129,4.325800000000072,-0.1087965921195198,0.4520979765782238,0.6305857295059221,17.4077854194,78.4014708614,538.3452859999999,2.006353999999989,2.0571000000000432
130,4.359166666666624,-0.2530706425272112,1.0959886403860988,-0.0969471068490421,17.407785185833333,78.40147029416667,538.3676416666665,2.010691666666645,2.040416666666752
131,4.392533333333176,-0.4190557330511048,-0.8776428825263309,-0.1988782392731609,17.407784952266667,78.40146972693333,538.3899973333331,2.0150293333333003,2.023733333333461
132,4.425900000000183,-0.4945047923310886,-0.3073269435567178,-0.9881789137299508,17.4077847187,78.4014691079,538.401734,2.0279140000000533,2.022590000000012
133,4.4592666666667355,-0.4068583599576804,-0.3249414270524398,-0.5010010649657948,17.40778448513333,78.40146847393333,538.4104093333334,2.0432626666666813,2.025926666666669
134,4.492633333333288,-0.4426198083058026,0.2581398650811836,0.1532765353222375,17.407784251566664,78.40146783996667,538.4190846666667,2.058611333333309,2.029263333333328
135,4.52599999999984,-0.7116080937160807,-2.1936102236869788,-0.6790202342862014,17.407784122,78.401467258,538.4404999999999,2.0388600000001214,2.0403999999999454
136,4.559366666666847,-0.9177138800145352,-2.5191551295772814,-0.7341143060076843,17.4077840219,78.40146669076667,538.4655250000002,2.009163666666458,2.0537466666667603
137,4.592733333333399,-0.5734611288633027,0.8349023783991971,-0.4732978345882341,17.407783921799997,78.40146612353334,538.4905500000001,1.9794673333332,2.067093333333393
138,4.626099999999951,-0.5757401490945531,1.5756762513333653,-0.3903940362091938,17.4077837695,78.4014654519,538.473815,2.0064080000000843,2.0465099999999405
139,4.659466666666503,-0.6033510827123221,0.3676393325941304,0.1745686900931501,17.407783602666665,78.4014647512,538.4454533333333,2.04911733333331,2.0164800000000165
140,4.692833333333056,-0.692509762149659,0.4299254526404824,-0.8522186723135814,17.407783435833334,78.4014640505,538.4170916666664,2.0918266666671177,1.9864499999996827
141,4.726200000000063,-0.5214483493072978,1.4058359957465183,-0.7713738019180023,17.4077833214,78.4014634808,538.4492520000002,2.044407999999678,2.014060000000194
142,4.759566666666615,-0.6134043308509748,0.8476322328442503,-0.4675470358569659,17.4077832213,78.40146294693334,538.4979673333332,1.9723360000001875,2.057436666666554
143,4.792933333333622,-0.5790841320513798,0.1923464679143848,-0.0241533546147621,17.4077831212,78.40146241306667,538.5466826666669,1.9002639999997144,2.100813333333505
144,4.826300000000174,-0.6470500532478225,-1.328583599561218,0.1082641107575298,17.4077831,78.40146180030001,538.594872,1.8739539999999928,2.052139999999965
145,4.859666666666726,-0.7027334043273358,0.0957756478858251,-0.3358892438718927,17.4077831,78.40146116633333,538.6429199999999,1.8599400000000288,1.9787333333334836
146,4.893033333333278,-0.7305005324815259,1.1417820376283214,-0.776272630460863,17.4077831,78.40146053236667,538.6909679999998,1.845926000000064,1.9053266666670017
147,4.926400000000285,-0.7339723109612125,0.3650266241245986,-0.744792332238337,17.4077830208,78.40145995120001,538.7445600000003,1.8379839999999583,1.8794399999999127
148,4.959766666666837,-0.7038906638253429,-1.2438480653305717,-0.5404614838788842,17.4077829207,78.40145938396667,538.7996150000002,1.831644333333308,1.86609333333328
149,4.99313333333339,-0.5327085551976855,-1.3242598508961176,0.7980830670985796,17.4077828206,78.40145881673334,538.85467,1.8253046666666568,1.8527466666666468
150,5.026499999999942,-0.8423855165069223,0.0546325878745928,-1.051544195951088,17.407782906,78.40145814350001,538.882165,1.862159999999951,1.8420500000000104
151,5.059866666666949,-0.940986865459474,0.1042811501880501,-0.6466595669269771,17.40778303946667,78.40145744280001,538.9025186666669,1.9102080000004849,1.832039999999899
152,5.093233333333046,-0.8430670926448531,-0.3451828185766095,0.0057365992459111,17.407783172933335,78.40145674210001,538.9228723333335,1.9582560000003637,1.8220299999999243
153,5.126600000000053,-0.8146112886047283,-1.163578274758272,-0.5153141640060381,17.4077832532,78.4014561212,538.9442900000001,1.9531039999999056,1.8599000000002524
154,5.159966666666605,-0.5187575434770503,-2.2847781327329653,0.7315441959862903,17.407783319933333,78.4014555206,538.9659783333334,1.9344186666666197,1.9099500000001264
155,5.193333333333612,-0.1762158324386903,0.1775647852188082,0.3117500887736718,17.407783386666665,78.40145491999999,538.9876666666669,1.9157333333330784,1.960000000000682
156,5.226700000000164,-0.2225985090541628,0.637039403600723,-0.0320553780567506,17.4077834801,78.4014543461,539.006151,1.894377999999836,1.9539799999998504
157,5.260066666666717,-0.1100887468850976,0.8427121050580564,0.6986865459927938,17.4077835802,78.40145377886667,539.0238353333333,1.8723559999999912,1.933959999999992
158,5.293433333333269,-0.0285481008166083,-0.1401419950328266,0.7665246716359632,17.4077836803,78.40145321163332,539.0415196666665,1.850334000000147,1.9139400000001332
159,5.326800000000276,-0.0592545260899478,-1.8404685835910888,0.37039403621344,17.4077836464,78.4014525372,539.053844,1.8567200000000472,1.893919999999929
160,5.360166666666828,-0.0855520056788326,-1.0250266240366304,-0.5509407170742243,17.407783579666667,78.4014518365,539.064855,1.8700666666666803,1.8738999999999797
161,5.39353333333338,0.1437273695421744,-1.9930564430164124,0.2367767128222835,17.407783512933335,78.40145113579999,539.0758659999999,1.8834133333333127,1.8538800000000304
162,5.426899999999932,0.4549307774250315,-0.5647923322584737,0.8382534611295153,17.4077836076,78.4014505158,539.1048999999998,1.879544000000032,1.8607599999999465
163,5.460266666666939,0.2516151934647933,0.5808164714652627,0.3466240681690979,17.407783741066666,78.4014499152,539.1382666666669,1.8715359999999432,1.8741066666667607
164,5.493633333333037,-0.0954703585370533,-2.160489882855108,0.6548739794115006,17.407783874533333,78.4014493146,539.1716333333335,1.8635279999999637,1.8874533333333945
165,5.527000000000044,-0.2843450479246787,-0.5965921192962043,-0.0826411075550558,17.4077839,78.401448714,539.17935,1.8598399999999944,1.8818999999999797
166,5.560366666666596,-0.3693503727354083,1.4393823216335393,-0.6866382676581045,17.4077839,78.4014481134,539.1810183333333,1.857170666666668,1.8718900000000047
167,5.593733333333603,-0.2399006034719561,1.756038338591435,0.8204614838412297,17.4077839,78.40144751279999,539.1826866666667,1.8545013333333047,1.8618799999998936
168,5.627100000000155,-0.3023642172500948,0.4711608093683052,0.6099254526320017,17.4077840084,78.4014468038,539.2030540000002,1.8919400000003788,1.857289999999973
169,5.660466666666707,-0.6104934327324851,1.521150159741724,-1.6388356407510822,17.407784141866667,78.40144606973332,539.2277453333335,1.9386533333335945,1.8539533333333147
170,5.693833333333259,-0.1910898118569595,1.1250266240647482,0.6254881079067955,17.407784275333334,78.40144533566666,539.2524366666667,1.98536666666681,1.8506166666666568
171,5.727200000000266,0.1228115015979322,0.4733972311043154,2.001789137379704,17.4077843544,78.401444656,539.2624400000001,2.004608000000136,1.888080000000489
172,5.7605666666668185,-0.2731558395463598,0.7998438054660881,-0.2841320553829434,17.407784421133336,78.40144398866667,539.2691133333334,2.017621000000044,1.934793333333492
173,5.793933333333371,-0.4166276180335651,-1.3068370607029374,-0.6939155129570052,17.407784487866667,78.40144332133333,539.2757866666667,2.030633999999952,1.981506666666495
174,5.827299999999923,-0.3075825346077088,0.0699467518684268,0.4767625133167762,17.407784554600003,78.4014425994,539.2922879999999,2.0523829999998338,2.000919999999906
175,5.86066666666693,-0.3677671281420558,0.8693645722053611,-0.5960241391240705,17.407784621333334,78.40144186533334,539.3109733333334,2.0760733333334302,2.014266666666721
176,5.894033333333027,-0.2433226837063182,-0.9585019524224698,-0.0322186723515923,17.407784688066666,78.40144113126667,539.3296586666667,2.099763666666704,2.027613333333354
177,5.927400000000034,-0.1694142705028337,-0.4400851970546467,0.8460063897791473,17.407784809600003,78.4014403698,539.326972,2.1311259999999685,2.0491799999999776
178,5.960766666666586,-0.1412424565150344,1.454526091591405,-0.1458146964899079,17.40778494306667,78.40143960236666,539.3196313333334,2.164158999999885,2.072536666666585
179,5.994133333333593,-0.2098402555900779,-1.5799645011862946,-0.2086190983411356,17.407785076533337,78.40143883493333,539.3122906666666,2.197192000000252,2.095893333333512
180,6.0275000000001455,-0.0444089456903296,-0.8158679446124656,0.9038338658065024,17.4077852375,78.4014382325,539.3429000000002,2.155424999999705,2.1275000000001705
181,6.060866666666698,0.0228753993596237,-0.3946183883339068,0.4608590699240378,17.407785404333335,78.40143766526667,539.3816053333335,2.097700666666517,2.1608666666667533
182,6.094233333332795,0.1358111466095567,-0.3283067092664775,0.2611927582501659,17.407785571166666,78.40143709803334,539.4203106666666,2.039976333333329,2.194233333333336
183,6.127600000000257,0.2910756123521186,-0.0790628328034942,1.02394036207663,17.407785738,78.40143647560001,539.428932,2.042420000000168,2.153079999999366
184,6.160966666666809,0.3985374511891748,0.1287113951012605,0.9666453674112648,17.407785904833332,78.40143584163333,539.4312676666667,2.05743500000013,2.096356666666176
185,6.194333333333361,0.1627973020932385,0.7538516152017721,-1.160454384093005,17.407786071666667,78.40143520766667,539.4336033333333,2.0724500000000923,2.039633333332985
186,6.227699999999913,0.0535676251379244,-1.716443024481094,0.0523109691409384,17.4077862108,78.401434546,539.4417559999999,2.075,2.0438499999999973
187,6.26106666666692,0.2774014909470962,0.5642172523529287,0.4621796237287034,17.40778634426667,78.40143387866667,539.4510986666667,2.075,2.06053333333344
188,6.294433333333018,-0.0051047213366697,1.1587717429955404,-0.4592261270903974,17.407786477733335,78.40143321133334,539.4604413333333,2.075,2.077216666666656
189,6.327800000000025,-0.0489456869007724,-0.8901384451660737,0.2983173588976457,17.407786639,78.401432544,539.5048119999998,2.0702740000000226,2.08
190,6.361166666666577,-0.0263755768549585,-0.0893858714966156,0.8525381611644626,17.407786805833332,78.40143187666666,539.5561966666663,2.0646016666667037,2.08
191,6.394533333333584,-0.2793326233581618,0.6299041533595297,-0.7129712459988891,17.407786972666667,78.40143120933332,539.6075813333335,2.0589293333333067,2.08
192,6.427900000000136,-0.1752076677330783,-0.3942279020093014,-0.0728647497485456,17.407787111599998,78.4014305699,539.6037239999999,2.050745999999981,2.074419999999986
193,6.461266666666688,-0.1644728434506419,-1.2852964146244217,0.5306638267659456,17.407787245066665,78.40142993593332,539.5890426666666,2.04207066666667,2.067746666666669
194,6.494633333332786,-0.0573801916901176,0.4464749734249922,-0.3322328718655539,17.40778737853333,78.40142930196666,539.5743613333334,2.0333953333333588,2.061073333333353
195,6.527999999999793,0.0394036208712353,0.5953141640193697,-0.3154419595583816,17.407787568,78.401428584,539.6019600000003,2.065040000000322,2.051599999999918
196,6.5613666666668,0.0546538871146328,-1.109385871498859,1.0106283280063462,17.4077877682,78.40142784993333,539.6376623333335,2.104412666666889,2.0415899999999434
197,6.594733333333352,0.1623855165100759,-0.2728008519726528,0.2340788072647599,17.4077879684,78.40142711586667,539.6733646666668,2.1437853333334567,2.0315799999999684
198,6.628099999999904,0.1172949946753877,0.8919062832711743,-0.6868583599586723,17.4077881686,78.4014264099,539.697546,2.140445999999993,2.0637200000000244
199,6.661466666666911,0.2110330138475838,-0.793141640018818,0.5120198792724318,17.4077883688,78.4014257092,539.7195680000002,2.1291013333332005,2.1037600000004693
200,6.694833333333008,0.3018459353959289,-0.7138445154467636,1.0171458999054366,17.407788569,78.4014250085,539.7415900000002,2.1177566666665624,2.1438000000003683
201,6.728200000000015,0.2667092651733632,0.498785942490649,-0.4123535676350514,17.4077887692,78.4014241668,539.7517680000001,2.1960880000002687,2.141539999999972
202,6.7615666666665675,0.1009513667031901,-1.3074973376171102,-0.1613915512798431,17.4077889694,78.40142329926665,539.759776,2.290849333332932,2.1315300000000423
203,6.794933333333574,-0.167511537095406,0.6004969825842742,0.046829960956863,17.4077891696,78.40142243173332,539.767784,2.385610666666887,2.1215199999999768
204,6.828300000000127,-0.4357614483499819,0.9406389776374022,-0.4579978700774841,17.4077893981,78.4014217057,539.795602,2.387265000000013,2.199239999999917
205,6.861666666666679,-0.6557330493436088,0.8803691870836179,-0.5867234646805636,17.407789631666667,78.401421005,539.8269666666666,2.3722500000000517,2.2926666666663484
206,6.895033333332776,-0.7899467518684037,-1.3485481008440732,-0.2440397586143285,17.407789865233333,78.4014203043,539.8583313333332,2.357235000000089,2.3860933333327794
207,6.928399999999783,-0.7592332268406676,0.0700319488355608,-1.145133120318042,17.407790212400002,78.40141957520001,539.8919680000002,2.3694840000000883,2.388639999999931
208,6.96176666666679,-0.71062122825811,1.0999432019994848,-1.3447426340226318,17.407790579433332,78.40141884113334,539.9260020000002,2.3865010000000453,2.375293333333298
209,6.995133333333342,-0.4049840255592449,-0.6740220092245939,0.1722115725912708,17.407790946466665,78.40141810706668,539.9600360000001,2.4035180000000023,2.3619466666666646
210,7.0284999999998945,-0.336528221512247,-1.3594249201277953,0.7129925452609158,17.4077911425,78.40141728750001,539.976685,2.423384999999952,2.37424999999996
211,7.061866666666901,-0.3505999290027018,1.1256372026574888,-0.8488036918577357,17.407791309333334,78.40141645333334,539.9903653333334,2.443738666666844,2.390933333333479
212,7.095233333332999,-0.3468654597128051,1.0625204118197022,-0.6515867944835491,17.407791476166665,78.40141561916667,540.0040456666667,2.4640923333334595,2.40761666666677
213,7.128600000000006,-0.2833226837067366,-1.0690095846693408,0.6176783812597555,17.407791643,78.4014148994,539.9916999999999,2.421811999999806,2.427160000000074
214,7.161966666666558,-0.225310614133555,-0.5100603478623981,0.1842030528572081,17.407791809833334,78.4014141987,539.9750166666666,2.3690926666666057,2.4471800000000234
215,7.195333333333565,-0.2161164359253108,0.93681221155374,-0.6729144479962315,17.40779197666667,78.401413498,539.9583333333331,2.316373333332687,2.4672000000002456
216,7.228700000000117,0.0032161874329981,-0.037252396165026,0.5956762513271819,17.4077921148,78.4014126825,539.9419369999999,2.34286600000023,2.4240799999996887
217,7.262066666666669,0.0753851615186661,-0.2456514022168399,0.8816613418630463,17.407792248266666,78.40141184833334,539.9255873333334,2.382238666666618,2.3706933333333997
218,7.2954333333332215,0.0220802271916091,0.2825204118013726,-0.4967128150590694,17.407792381733334,78.40141101416667,539.9092376666669,2.4216113333330065,2.3173066666671103
219,7.328799999999774,0.0825559105406087,0.3477742279310691,-0.1598722044882206,17.407792659200002,78.4014102952,539.903832,2.411447999999961,2.3445600000000875
220,7.362166666666781,0.0698615548480212,-1.3095491657787457,0.98104366346988,17.4077929595,78.4014095945,539.9001616666667,2.393430000000006,2.3845999999999865
221,7.395533333333333,0.2185587504402139,0.6919701810596179,0.1485268015424704,17.407793259800002,78.4014088938,539.8964913333333,2.375412000000052,2.4246399999998856
222,7.428899999999885,0.0769116080943036,1.2823216187425013,-0.66615548455639,17.4077935601,78.4014081064,539.9329919999998,2.4160609999997327,2.412660000000108
223,7.462266666666892,0.1358608448697463,-1.1242172523760274,0.8717784877449088,17.4077938604,78.4014073056,539.9757013333335,2.4657773333336177,2.392639999999885
224,7.495633333332989,-0.108626198083067,-1.2394817181497857,0.4030457934038736,17.4077941607,78.4014065048,540.0184106666668,2.515493666666826,2.372619999999936
225,7.528999999999996,-0.1970181043663471,1.020234291799787,-1.0702875399361025,17.40779449,78.401405791,540.04575,2.514169999999994,2.413500000000034
226,7.5623666666665486,-0.1221157259473963,0.5798154063967985,-0.2855449058954047,17.407794823666666,78.4014050903,540.070775,2.5051610000000166,2.463549999999908
227,7.5957333333335555,-0.2297195598142648,-1.3217323394294342,0.7844799432266337,17.407795157333332,78.40140438959999,540.0958000000003,2.4961519999999164,2.513600000000464
228,7.629100000000108,-0.2823429179987068,0.5706070287188922,-0.6227902023310626,17.4077954328,78.4014036307,540.099,2.50664000000009,2.514179999999955
229,7.66246666666666,-0.4371849485272999,1.0800496982586438,-1.4125665601731543,17.407795699733335,78.40140286326667,540.099,2.519986666666723,2.5075066666666386
230,7.695833333333212,-0.3407880724172716,0.321441249548291,0.4042243521504967,17.40779596666667,78.40140209583333,540.099,2.5333333333333563,2.500833333333322
231,7.729200000000219,-0.3316719914791048,-1.6533333333339688,0.7236634717848263,17.407796613200002,78.4014013284,540.1506840000005,2.628732000000946,2.511680000000118
232,7.762566666666771,-0.4517145899895131,0.4069790557215097,-0.9466098686483594,17.4077973139,78.40140056096666,540.2097430000001,2.7358390000001886,2.5250266666666903
233,7.795933333333323,-0.4288959886399585,1.4438338658116667,-1.0695633652791194,17.4077980146,78.40139979353333,540.2688019999996,2.8429459999994315,2.5383733333332628
234,7.829299999999876,-0.43312034078537,0.2932055377418011,0.1091586794777465,17.4077984809,78.4013990847,540.2953379999998,2.8223050000003216,2.6337599999991053
235,7.8626666666668825,-0.5143769968010438,-1.15186368480873,0.2280440184854344,17.407798914666667,78.401398384,540.31736,2.783933333333229,2.7405333333336244
236,7.89603333333298,-0.4690024849130267,0.7901313454017356,-0.788363507277182,17.407799348433333,78.40139768329999,540.339382,2.745561666666659,2.8473066666666886
237,7.929399999999987,-0.4588711395104425,0.9340149094842588,-0.6408093716797245,17.407799870399998,78.4013969826,540.35082,2.7521719999999705,2.824720000000093
238,7.962766666666539,-0.4298260560875538,-0.8119417820733137,0.3296627618126842,17.407800404266666,78.4013962819,540.36083,2.764851333333272,2.784680000000194
239,7.996133333333091,-0.4774724884677118,-1.4587433440643676,0.1396947107097588,17.40780093813333,78.4013955812,540.37084,2.777530666666746,2.744639999999749
240,8.029500000000098,-0.2227902023450876,0.3068157613973248,-0.2939297124612262,17.407801413,78.40139502800001,540.4017950000001,2.732094999999801,2.75180000000005
241,8.06286666666665,-0.0674334398299313,1.2499822506182452,-0.1258927937491425,17.407801880133334,78.40139449413334,540.4354953333333,2.679041999999935,2.765146666666683
242,8.096233333333203,0.0268867589634452,-0.1519985800416255,0.8532268370568248,17.407802347266667,78.40139396026667,540.4691956666666,2.625989000000069,2.778493333333316
243,8.12960000000021,-0.0960596379146489,-1.715058572980329,0.8286261980946668,17.4078027848,78.40139327840001,540.4667839999998,2.616447999999961,2.732639999999476
244,8.162966666666762,0.022910898118917,0.2107490238092524,-0.0447852325244658,17.407803218566666,78.4013925777,540.4597769999999,2.612443999999971,2.679253333332944
245,8.196333333333314,0.1281505147318552,1.3130990415336432,-0.0331558395451574,17.40780365233333,78.401391877,540.45277,2.608439999999981,2.625866666666412
246,8.229699999999866,0.0718849840268182,0.3450053247887505,0.3541214057670165,17.4078041752,78.4013911763,540.458534,2.650173999999915,2.617030000000006
247,8.263066666666873,-0.1322506212198989,-2.460081647050412,0.4857117500845295,17.407804709066667,78.4013904756,540.4658746666668,2.697554666666892,2.613693333333317
248,8.296433333333425,-0.0167625133114799,-0.1144834930890746,0.3404969826093526,17.407805242933332,78.4013897749,540.4732153333333,2.744935333333224,2.610356666666674
249,8.329799999999977,-0.047071352503011,1.3854313099037816,-0.5416400426001363,17.407805925799998,78.4013890742,540.48592,2.806917999999661,2.651719999999752
250,8.36316666666653,-0.0383386581465774,0.4279020234208115,-0.0146964856142471,17.4078066265,78.4013883735,540.4992666666666,2.870648333332834,2.698433333332967
251,8.396533333333082,-0.0113596024133504,-1.296485622996318,0.9086971955964752,17.4078073272,78.40138767280001,540.5126133333334,2.934378666666875,2.74514666666682
252,8.429900000000089,0.0182534611311095,-0.1578700745650693,0.3181256656207423,17.407807938199998,78.40138691230001,540.518485,2.9679100000000225,2.8068100000000475
253,8.463266666666186,-0.003237486688051,0.6644373446962883,-0.1575008874715524,17.407808538799998,78.40138614486666,540.52349,2.997939999999947,2.8702066666665544
254,8.496633333333193,-0.0268583599568261,0.1017323393617081,0.1830386936566111,17.407809139399998,78.40138537743333,540.528495,3.027969999999871,2.9336033333330613
255,8.5300000000002,-0.0114483493086822,-0.5346112885964237,0.6206070287495745,17.407809739999998,78.40138473,540.5392,2.9985999999997546,2.9670000000002044
256,8.563366666666752,-0.1079446219376432,-0.779616613411975,0.2351508697179532,17.407810340599998,78.40138409603334,540.5505446666667,2.962563999999845,2.997030000000129
257,8.596733333333304,-0.0666524671640921,0.899439119623834,-0.3304366347177034,17.407810941199998,78.40138346206666,540.5618893333334,2.9265279999999363,3.027060000000053
258,8.630099999999857,-0.0968264110733109,0.8138871139561723,-0.068349307757177,17.407811391299997,78.4013826174,540.554271,2.9431669999999834,2.999900000000025
259,8.663466666666864,-0.0746893858724549,-0.2127085551245506,0.5968406105719748,17.407811825066666,78.40138174986667,540.5445946666665,2.9655226666668986,2.966533333332988
260,8.696833333333416,-0.1350727724511884,-0.6835285764850678,0.1845935392366522,17.40781225883333,78.40138088233333,540.5349183333333,2.9878783333335086,2.933166666666405
261,8.730199999999968,-0.2015761448340745,-0.9135250266117284,-0.2833652822157771,17.4078125718,78.40137974299999,540.4950419999999,3.0697280000001057,2.9481200000000243
262,8.76356666666652,-0.1006815761440038,-0.0236918707910449,-0.0739013134455423,17.4078128721,78.40137857516666,540.4519990000002,3.157815999999483,2.9681399999998828
263,8.796933333333072,-0.0491870784525227,0.2951508697251671,0.3006318778828973,17.4078131724,78.40137740733333,540.408956,3.2459040000000607,2.988160000000014
264,8.83030000000008,-0.1426411075612953,-0.281150159745765,0.0847710330140188,17.4078135636,78.40137654249999,540.393486,3.2194580000000856,3.0718099999997976
265,8.863666666666177,-0.1458288959878526,-0.2643947461839352,0.17806176784107,17.407813964,78.40137570833333,540.3808066666667,3.1814200000001813,3.1618999999995703
266,8.897033333333184,-0.0197089101906435,0.465587504439163,0.2090592829293025,17.4078143644,78.40137487416666,540.3681273333334,3.143382000000277,3.251989999999343
267,8.93040000000019,0.0210436634751414,0.6122683706330099,0.2344195953165505,17.4078147952,78.4013741008,540.364568,3.0791999999997453,3.223519999999847
268,8.963766666666743,0.0504011359610988,0.2898473553454041,0.296102236422779,17.407815228966665,78.40137333336666,540.3618986666667,3.0124666666665805,3.1834799999999484
269,8.997133333333295,0.1502662406825083,-0.0630102946296587,0.2571884984029796,17.407815662733334,78.40137256593333,540.3592293333334,2.9457333333334152,3.1434400000000493
270,9.030499999999847,0.1294994675193341,-0.304579339722141,0.2088391906273787,17.4078162185,78.401371829,540.2629250000005,2.9271900000000524,3.07900000000025
271,9.063866666666854,0.2022861199881676,-0.1632516861949621,0.0289243876506631,17.40781678573333,78.40137109493332,540.1578199999992,2.913175999999897,3.0122666666661755
272,9.097233333333406,0.1888533901337345,-1.3441746538551471,0.0901881434058539,17.407817352966667,78.40137036086666,540.0527149999995,2.8991619999999325,2.9455333333330103
273,9.130599999999959,0.2802449414299194,-1.135569755030896,0.6920127795668085,17.407817858999998,78.4013697186,540.050732,2.847203999999872,2.927759999999969
274,9.16396666666651,0.3945544905985799,-0.5021512246541967,0.764465743697001,17.4078183595,78.40136908463333,540.0580726666667,2.7918153333333446,2.914413333333336
275,9.197333333333063,0.4465743698980867,0.0709975150882633,0.6691515797046548,17.40781886,78.40136845066667,540.0654133333335,2.736426666666063,2.901066666666521
276,9.23070000000007,0.2525452609165536,0.1391693290892663,0.246602768900601,17.4078194219,78.4013678167,540.072754,2.725859999999972,2.847809999999762
277,9.264066666666622,0.3184238551653113,0.564856230028462,-0.1740149094739548,17.407819989133333,78.40136718273332,540.0800946666666,2.719186666666686,2.7910866666668297
278,9.297433333333174,0.1659921902729271,-0.5381824636455532,-0.328839190627956,17.407820556366666,78.40136654876666,540.0874353333332,2.7125133333334,2.734363333333897
279,9.330800000000181,0.1394675186354994,0.5706496272820609,-0.0834504792430365,17.4078208464,78.4013656376,540.056892,2.729556000000016,2.7238399999999947
280,9.364166666666733,0.0154064607737695,-0.7055378061849198,-0.0854100106479225,17.407821113333334,78.40136470333333,540.0231916666667,2.748574999999968,2.717166666666678
281,9.397533333333286,-0.0189563365263327,0.037344692922736,-0.6842740504017302,17.407821380266665,78.40136376906668,539.9894913333335,2.76759399999992,2.7104933333333614
282,9.430899999999838,-0.0721618743338868,0.1125026624087606,-0.1874547390824312,17.4078218017,78.4013630511,539.9900899999999,2.725740000000316,2.7285399999998647
283,9.464266666666845,-0.1304082357120703,0.4252183173492222,-0.3111395101174868,17.407822235466668,78.4013623504,539.9934266666667,2.679026666666463,2.748560000000088
284,9.497633333333397,-0.2685126020618724,0.5555768548125477,-1.0830812921650066,17.407822669233333,78.40136164970001,539.9967633333333,2.632313333333248,2.768580000000037
285,9.530999999999949,-0.259318423855165,-0.1432374866879658,0.1794462193823216,17.407823165,78.40136091800001,539.98646,2.6587599999999783,2.726600000000032
286,9.564366666666956,-0.3505431309892066,-0.0085410010862171,0.1435924742692768,17.4078236655,78.40136018393333,539.9751153333332,2.690792000000334,2.67988666666618
287,9.597733333333053,-0.3405182818594659,0.5226979055645129,-0.6555058572990085,17.407824166,78.40135944986667,539.9637706666665,2.7228240000002533,2.633173333332964
288,9.63110000000006,-0.3140788072417698,0.2495207667767079,0.0295846645356913,17.4078243866,78.40135843590001,539.8989339999996,2.743038000000104,2.66110000000018
289,9.664466666666613,-0.3770855520069006,-0.3699148029864903,0.1071352502585162,17.4078245868,78.40135740153333,539.8301986666664,2.762390666666722,2.694466666666762
290,9.69783333333362,-0.2847355342521103,-0.11128860491481,-0.6618743343823146,17.407824787,78.40135636716667,539.7614633333324,2.7817433333336035,2.7278333333338
291,9.731200000000172,0.0365282215129008,-1.5785942492062903,0.8654419595368283,17.4078252368,78.401355676,539.752632,2.737759999999652,2.748720000000144
292,9.764566666666724,-0.0147319843813699,-0.7450408235990682,0.3517500887654013,17.407825703933334,78.40135500866667,539.7479606666667,2.689378333333327,2.7687400000000024
293,9.797933333333276,0.0261554845572965,-0.6704153354537125,-0.4304579339760302,17.407826171066667,78.40135434133333,539.7432893333335,2.6409966666670024,2.788759999999861
294,9.831300000000283,0.0910330138438412,-1.022193823236074,0.544749733748757,17.4078267634,78.4013536114,539.7439390000001,2.673682000000148,2.7430499999998057
295,9.864666666666835,0.1276180333654016,0.3010294639526988,0.2325168619174203,17.407827364,78.40135287733332,539.74494,2.711720000000052,2.692999999999932
296,9.898033333333387,0.1764004259860319,0.5011856585055788,0.116556620522344,17.4078279646,78.40135214326666,539.745941,2.7497579999999555,2.642950000000058
297,9.93139999999994,0.2396166134184334,-0.7153141640043529,0.9027050053249182,17.407828251199998,78.4013512208,539.7058080000002,2.751372000000002,2.6776799999998526
298,9.964766666666947,0.1920979765697893,0.2326943556791476,0.2753212637760363,17.407828518133332,78.40135028653334,539.6630986666664,2.7507046666666617,2.717720000000297
299,9.998133333333044,0.212602058926416,0.7027689030592498,-0.1991835285756805,17.407828785066666,78.40134935226668,539.6203893333332,2.75003733333333,2.757760000000196
300,10.031500000000051,0.2748668796598124,-0.8718849840069042,0.7732694355643505,17.407829398500002,78.40134857550001,539.6306000000001,2.7761450000000663,2.76
301,10.064866666666603,0.2223642172520474,0.0266950656722364,0.3648562300364818,17.407830032466666,78.40134780806667,539.6439466666667,2.80383933333333,2.76
302,10.09823333333361,0.244749733760097,1.0063613773187396,-0.4960241391546969,17.407830666433334,78.40134704063334,539.6572933333335,2.831533666666971,2.76
303,10.131600000000162,0.3252396166148956,0.1561235356900294,0.5812566560109131,17.4078311108,78.4013461152,539.6134439999996,2.850380000000156,2.7852800000002254
304,10.164966666666714,0.2649982250615901,0.4092509762250591,0.3836137735102983,17.407831544566665,78.40134518093333,539.5663969999997,2.8687316666667755,2.8119733333334915
305,10.198333333333267,0.2015619453327398,0.4988285410069538,-0.4608448704267713,17.407831978333334,78.40134424666667,539.5193499999999,2.887083333333396,2.8386666666667573
306,10.231700000000274,0.2658785942494453,-0.1636208732460038,0.4844302449336164,17.4078324438,78.4013434709,539.5274610000001,2.8496429999995883,2.859020000000204
307,10.265066666666826,0.1167731629445879,-0.4301029464008634,0.3814696485816233,17.407832910933333,78.40134270346667,539.5384720000001,2.809269333333207,2.8790400000000624
308,10.298433333333378,0.0432445864393789,0.4415122470717166,-0.671466098687109,17.40783337806667,78.40134193603333,539.5494829999999,2.768895666666826,2.899059999999921
309,10.33179999999993,0.0449414270500144,0.199659211933301,-0.0119701810457478,17.4078337816,78.401341105,539.5579499999999,2.775267999999942,2.858660000000289
310,10.365166666666937,-0.0789847355279928,-0.7483138090253371,0.053603123910681,17.407834182000002,78.40134027083333,539.5662916666668,2.783943333333372,2.815283333333141
311,10.398533333333035,-0.192261270855068,-0.2235356762503867,-0.8059282925082043,17.4078345824,78.40133943666666,539.5746333333334,2.7926186666666832,2.771906666666584
312,10.431900000000041,-0.2564856230038225,0.2368051118392878,-0.5101597444161984,17.407835174200002,78.4013386982,539.589993,2.8373409999999715,2.779569999999994
313,10.465266666666594,-0.2069577564790881,-0.2861199857787442,0.056656017034149,17.407835774800002,78.40133796413333,539.6056753333332,2.8837206666665214,2.7895799999999684
314,10.4986333333336,-0.217266595661368,0.4574511892452069,-0.4859992900036818,17.407836375400002,78.40133723006667,539.6213576666668,2.9301003333337032,2.79959000000008
315,10.532000000000153,-0.2622470713500206,0.9757720979866804,-0.6051650692312338,17.407836944,78.401336432,539.622,2.9496000000001,2.8448000000002547
316,10.565366666666705,-0.2589563365283687,-0.6158750443764895,0.3428257010980813,17.407837511233332,78.4013356312,539.622,2.9679516666667203,2.89151333333347
317,10.598733333333257,-0.3870429534964419,0.0953319133864983,-0.624778132767694,17.407838078466668,78.4013348304,539.622,2.986303333333341,2.9382266666666856
318,10.632100000000264,-0.4206602768924396,1.1799148029498048,-1.1813844515491396,17.4078386778,78.4013340296,539.623284,2.972875999999831,2.956050000000192
319,10.665466666666816,-0.3307774227903476,-0.1696840610525761,0.3930422435197171,17.4078392784,78.4013332288,539.6246186666666,2.958194666666534,2.9727333333334838
320,10.698833333333369,-0.4856940007094069,-1.123038693657061,0.0453319133896308,17.407839878999997,78.401332428,539.6259533333333,2.943513333333238,2.989416666666775
321,10.73219999999992,-0.4892438764666483,0.1732694355879885,-1.1930777422789476,17.4078406406,78.401331756,539.6720459999999,2.978741999999984,2.977120000000006
322,10.765566666666928,-0.3016258430956517,0.3851331203878687,0.0891515796443472,17.407841408033335,78.40133108866667,539.7197603333336,3.0157790000002267,2.963773333333252
323,10.798933333333025,-0.2812353567628775,-0.1993042243517498,0.4692367767117328,17.40784217546667,78.40133042133334,539.7674746666667,3.052815999999965,2.9504266666666794
324,10.832300000000032,-0.3132268370577739,0.113865814705412,-0.6868796592015192,17.407842749100002,78.40132962480001,539.758987,3.052708000000005,2.9855299999998675
325,10.865666666666584,-0.2644657437000198,0.1046325878424143,-0.713436279726436,17.407843316333334,78.401328824,539.7486433333335,3.0513733333333413,3.022233333333108
326,10.899033333333591,-0.0471707490267944,-0.8678239261582316,0.6633865814654991,17.407843883566667,78.40132802320001,539.7382996666666,3.05003866666666,3.0589366666668494
327,10.932400000000143,-0.0425559105411085,0.3453887113999478,-0.2160596379005037,17.4078445804,78.40132735200001,539.7814160000001,3.043519999999984,3.056759999999992
328,10.965766666666696,-0.0470926517572698,0.8951792687240397,-0.356670216540622,17.4078452811,78.40132668466667,539.8261273333334,3.036846666666667,3.0534233333333334
329,10.999133333332793,-0.0032658856934518,-0.3127440539594029,0.5713170039048956,17.407845981799998,78.40132601733333,539.8708386666665,3.0301733333333503,3.050086666666675
330,11.032500000000255,-0.1148029818965634,0.0571884983734404,0.0790202343199273,17.407846845,78.401325415,539.8983250000002,3.046900000000148,3.043499999999943
331,11.065866666666807,-0.2238835640720493,0.4140007099679679,-0.3885126020489554,17.407847712533332,78.4013248144,539.9253520000001,3.0642506666667706,3.0368266666666264
332,11.099233333333359,-0.2101313454032233,-0.525374511893135,0.2874263400764494,17.407848580066666,78.40132421380001,539.9523790000001,3.0816013333333934,3.03015333333331
333,11.132599999999911,-0.2670394036210548,-0.4367412140490087,0.0445686900817174,17.4078491868,78.40132354800001,539.955282,3.004085999999924,3.046300000000016
334,11.165966666666918,-0.2553638622648943,0.0589066382670348,-0.6011785587454381,17.4078497874,78.40132288066667,539.9576176666667,2.9243396666657047,3.0629833333335346
335,11.199333333333016,-0.1256656017044246,-1.046148384804191,0.4407170748943473,17.407850388,78.40132221333333,539.9599533333334,2.8445933333325724,3.0796666666668258
336,11.232700000000023,-0.0889669861542137,-0.2716080937084754,0.197976570815837,17.4078510867,78.4013214806,539.9681750000001,2.894666000000135,3.001519999999795
337,11.266066666666575,-0.0943556975506825,-0.0662051828160991,-0.4259850905208631,17.407851787400002,78.40132074653333,539.9765166666666,2.9473853333330955,2.9214400000003606
338,11.299433333333582,-0.0064678736228682,-0.6181895633477084,0.0282996095094,17.4078524881,78.40132001246667,539.9848583333334,3.000104666666775,2.841359999999836
339,11.332800000000134,0.0191693290720295,-0.6766773163278542,0.2943556975605378,17.4078530904,78.4013193112,539.990904,2.967872000000018,2.89247999999997
340,11.366166666666686,0.0581824636135087,0.2402555910513298,-0.0434149804756381,17.407853691,78.4013186105,539.9969100000001,2.93417166666677,2.945866666666503
341,11.399533333332784,0.095012424566137,0.1032836350516292,0.3126020589403191,17.4078542916,78.4013179098,540.002916,2.9004713333335217,2.999253333333035
342,11.43289999999979,-0.028796592122073,0.07354632588279,0.2073269435603616,17.407854958,78.40131714329999,540.0210950000002,2.920069000000112,2.967099999999816
343,11.466266666666797,-0.1089811856585826,0.0198260560884525,-0.2582002129924363,17.407855625333333,78.40131637586667,540.0394466666668,2.9404226666667275,2.933733333333233
344,11.49963333333335,-0.1782108626188862,-0.737955271534276,0.2004401845859868,17.407856292666665,78.40131560843334,540.0577983333334,2.960776333333343,2.9003666666666508
345,11.532999999999902,-0.2790202342917998,-0.4142705005324814,0.0266240681576144,17.407856761999998,78.401314709,540.02863,2.963309999999995,2.919799999999959
346,11.566366666666909,-0.3365992190267658,0.2190344337948313,-0.672864749729114,17.407857229133334,78.4013138081,539.9989336666664,2.965645666666688,2.9398200000001813
347,11.599733333333006,-0.2721334753279115,0.597515086972747,-0.139226127097643,17.407857696266667,78.4013129072,539.9692373333332,2.9679813333333485,2.959840000000131
348,11.633100000000013,-0.3595527156561763,0.9623642172360776,-0.5526730564450701,17.4078582627,78.40131213869999,539.970986,2.938871999999882,2.9633100000000137
349,11.666466666666565,-0.4761519346838475,-0.0445722400256437,-0.672871849490758,17.407858829933332,78.40131137126667,539.972988,2.9095093333332893,2.966646666666672
350,11.699833333333572,-0.4586439474577062,-0.8165424210066894,-0.1503727369563761,17.407859397166668,78.40131060383334,539.97499,2.8801466666662963,2.969983333333376
351,11.733200000000124,-0.3770500532475188,0.2134185303593316,-0.1028221512227578,17.4078599644,78.401309936,539.9965800000001,2.836839999999759,2.9401199999998333
352,11.766566666666677,-0.3240681576141541,-0.1156975505762452,0.4781824636075384,17.407860531633336,78.40130926866667,540.0182683333333,2.7934633333333987,2.910090000000045
353,11.799933333332774,-0.3304224352205337,-0.9141924032541712,0.3052609158435442,17.407861098866668,78.40130860133333,540.0399566666664,2.7500866666670385,2.8800600000002574
354,11.833299999999781,-0.3783386581538398,-0.3974440895225967,-0.0655591054234527,17.407861865900003,78.4013080006,540.050323,2.766317000000041,2.8367099999998904
355,11.866666666666788,-0.1732339368118887,0.1767838125431932,0.1647142350024206,17.407862633333334,78.4013074,540.0606666666666,2.7826666666666666,2.793333333333333
356,11.90003333333334,-0.1538658146966831,0.2622293219720553,0.1528931487396682,17.4078634006,78.4013067994,540.0709793333334,2.798948000000131,2.7500166666666246
357,11.933399999999892,-0.2025559105428404,0.1821086262046209,-0.1952076677317989,17.4078640012,78.4013061988,540.0502920000001,2.7468960000002625,2.766699999999916
358,11.9667666666669,-0.2287397941079784,0.2217465388780008,-0.2177848775359696,17.4078646018,78.4013055982,540.0296046666666,2.694843999999684,2.7833833333334344
359,12.000133333332997,-0.2264465743698284,-0.2539936102235816,0.0549875754350333,17.407865202533333,78.40130499746667,540.00908,2.64304133333337,2.799786666666477
360,12.033500000000004,-0.1719914802981895,-0.0127795527156549,0.2694355697550585,17.4078658365,78.4013043635,540.0291,2.6533850000000103,2.7463999999999453
361,12.066866666666556,-0.0626730564430789,-0.5708910188145191,0.4448349307768053,17.40786647046667,78.40130372953334,540.0491199999999,2.663728666666651,2.6930133333334134
362,12.100233333333563,0.1290805821784821,-0.3570749024148146,0.7396734114285181,17.4078671035,78.40130309556667,540.068827333333,2.673740999999644,2.6400700000000965
363,12.133600000000115,0.2795527156557995,0.6548455803974457,0.3982960596410605,17.407867604,78.40130246160001,540.0441359999998,2.636703999999737,2.650080000000071
364,12.166966666666667,0.3675257365991338,0.7829747958831359,0.3842527511534229,17.4078681045,78.40130182763333,540.0194446666666,2.599666999999831,2.6600900000000456
365,12.20033333333322,0.4536741214038136,1.226482073102419,0.3134540291112412,17.407868605333334,78.40130119433334,539.9950366666667,2.562659999999932,2.66963333333326
366,12.233700000000226,0.4638338658159963,-0.1607028753787981,0.2937806176804908,17.407869139200002,78.4013006271,539.9987070000001,2.5286259999997087,2.632929999999686
367,12.267066666666778,0.4611998580052732,-0.5974156904370559,0.5240042598510873,17.407869673066667,78.40130005986667,540.0023773333334,2.4945919999999493,2.596226666666612
368,12.30043333333333,0.3840965566183228,1.1384451544097158,0.1959886403902313,17.40787020606667,78.40129949176666,540.005909,2.4606966666667955,2.559566666666851
369,12.333799999999883,0.2110756123542455,1.069488817905963,0.0430244941413974,17.4078706732,78.4012988578,539.998902,2.437340000000188,2.5262000000002685
370,12.36716666666689,0.0975860844887153,1.126340078111143,-0.0498047568321095,17.407871140333334,78.40129822383334,539.991895,2.413983333333262,2.492833333333231
371,12.400533333332987,0.0251473198437886,-1.4087752928638275,0.1616329428468402,17.4078716096,78.40129759093334,539.9850746666667,2.3909199999999973,2.459626666666654
372,12.433899999999994,-0.225686900961008,-2.1352502662701265,0.4185090521830341,17.4078722102,78.4012970237,539.989746,2.38591500000001,2.436270000000046
373,12.467266666666546,-0.2125665601622579,0.0438764643769721,-0.2383386581462868,17.4078728108,78.40129645646667,539.9944173333333,2.3809100000000223,2.4129133333334383
374,12.500633333333553,-0.2335534256304335,1.388562300284031,0.0300319488669117,17.407873410133334,78.40129589113333,539.9990063333333,2.375151333333038,2.3899366666666446
375,12.534000000000106,-0.3546325878596186,0.4140575080232128,-0.2334398296092956,17.407873944,78.401295424,539.99934,2.3304399999998173,2.3865999999999863
376,12.567366666666658,-0.6201774937836778,-0.7804472843144874,-0.7420305289154607,17.407874477866667,78.40129495686666,539.9996736666667,2.2857286666665964,2.383263333333328
377,12.60073333333321,-0.6036918707841512,0.2778310259140405,-0.6854100106485134,17.407875011,78.40129449046667,539.9989953333334,2.241560000000019,2.378973333333378
378,12.634100000000217,-0.6370607028767942,1.252353567612069,-0.4817678381277344,17.407875511500002,78.40129405670001,539.9532829999996,2.2215399999997967,2.332259999999525
379,12.667466666666769,-0.3870784522536286,2.2977635782711574,-0.4500674476379223,17.407876012,78.40129362293334,539.9075706666664,2.201519999999847,2.2855466666663102
380,12.700833333333321,-0.4712460063902606,1.669080582166309,-1.0877884274031873,17.407876514166666,78.40129318833333,539.8639166666669,2.18143333333322,2.2394999999999
381,12.734199999999873,-0.3752928647542377,1.543769967918399,-0.6240681575912377,17.4078770814,78.4012927212,539.9006199999999,2.158744000000047,2.2194800000000416
382,12.76756666666688,-0.2575292864718778,0.7648988286240354,-0.1811075612333537,17.40787764863333,78.40129225406666,539.9373233333334,2.1360546666665647,2.1994599999999105
383,12.800933333332978,-0.1436989705388723,1.0656017039094643,-0.29020234292502,17.4078782168,78.4012917888,539.9734013333333,2.1141399999999875,2.1794400000000493
384,12.834299999999985,0.0080298189643641,-0.5348242810732934,-0.2295207667574177,17.4078788174,78.4012913884,539.9877489999999,2.119144999999975,2.1594200000001
385,12.867666666666537,0.0126020589298343,-2.4825168618837017,-0.325967341134363,17.407879418,78.401290988,540.0020966666665,2.1241499999999625,2.1394000000001503
386,12.901033333333089,0.5624281150098491,0.4405395810395962,0.182882499097458,17.407880014466667,78.40129058243333,540.0166923333334,2.1284936666666074,2.1201033333333457
387,12.934400000000096,0.6387646432370508,0.9231629392517589,0.5954206602916369,17.4078804816,78.40129001519999,540.039048,2.112143999999982,2.1234400000000035
388,12.967766666666193,0.7669932552347314,0.7932694355801537,0.8597160099249633,17.407880948733332,78.40128944796666,540.0614036666666,2.0957943333333566,2.126776666666662
389,13.0011333333332,0.4833084842008909,-0.6422577210004777,0.675342562991605,17.407881420400003,78.4012888898,540.0844279999998,2.0792860000000832,2.1294333333333992
390,13.034500000000207,0.2343982960601415,-0.634611288619505,0.2445154419672025,17.407882021000002,78.4012885895,540.1264700000003,2.058264999999849,2.1127499999998807
391,13.06786666666676,0.2158324458622961,0.3447639332500025,0.1102591409280979,17.4078826216,78.4012882892,540.1685120000002,2.0372439999999026,2.096066666666589
392,13.101233333333312,0.3211359602399089,1.528966986150196,-0.03225417110798,17.407883219733336,78.40128799013333,540.2088396666666,2.014779999999873,2.079259999999958
393,13.134599999999864,0.3919062832818286,2.1493929712775977,0.714504792357862,17.4078837536,78.4012877232,540.2045019999999,1.9547200000000244,2.0592400000000084
394,13.16796666666687,0.3305644302499974,1.6060063898114123,0.6494213702637823,17.40788428746667,78.40128745626666,540.2001643333333,1.8946599999993572,2.0392199999997858
395,13.201333333333423,0.219914802982743,1.1254881079377337,-0.5948704295371657,17.40788481466667,78.40128718266666,540.1967466666669,1.836359999999872,2.01759999999952
396,13.234699999999975,0.1725878594238914,-1.4793610223752356,0.0669222577275001,17.4078851817,78.4012867489,540.215432,1.820343999999985,1.9575399999999443
397,13.268066666666527,0.3256372026979391,-1.785644302445912,0.8434362797290833,17.407885548733333,78.40128631513333,540.2341173333332,1.8043280000000983,1.8974800000003689
398,13.30143333333308,0.3813631522914326,-2.013099041533798,0.8789776357901009,17.4078859258,78.40128588853334,540.2531466666667,1.7887563333333298,1.8392833333333232
399,13.334800000000087,0.2822151224772514,-1.1735889243876465,-0.4971246006087579,17.4078865264,78.4012856216,540.2798399999999,1.7830840000000108,1.822600000000032
400,13.368166666666184,0.5361377351788684,-0.7483848065336569,0.3974795882172666,17.407887127,78.40128535466667,540.3065333333332,1.7774116666666917,1.8059166666667408
401,13.401533333333191,0.6353283635092093,-0.4101100461066765,0.492694355686129,17.407887721466665,78.4012850816,540.3336866666664,1.7718160000000278,1.7896933333333798
402,13.434900000000198,0.6316719914772065,0.9541214057320316,-0.1652609158810165,17.407888188599998,78.4012846812,540.3703900000002,1.7678119999999833,1.7830199999999723
403,13.46826666666675,0.5574369897054168,0.6693645722455731,0.8046325878598971,17.40788865573333,78.4012842808,540.4070933333334,1.7638079999999934,1.776346666666656
404,13.501633333333302,0.1293787717475774,-2.0463613773154776,-0.4276677316184247,17.40788911143333,78.40128387713332,540.4410853333334,1.7570763333333863,1.7698366666666696
405,13.534999999999854,-0.0837060702890121,-3.3812566560181048,-0.2296059637949672,17.407889344999997,78.40128340999999,540.4224,1.6973500000002035,1.7665000000000113
406,13.568366666666861,0.0787007454738793,-0.8402129925462373,0.0035427760032448,17.407889578566667,78.40128294286666,540.4037146666665,1.6376236666662067,1.7631633333333077
407,13.601733333333414,0.3916932907417738,1.934753283667504,-0.0854810081602506,17.407889813866667,78.40128247919999,540.3853413333333,1.579335999999834,1.756879999999689
408,13.635099999999966,0.3517571884961361,0.7666027688357219,0.7330351437704562,17.4078900808,78.4012820788,540.3726619999999,1.547303999999915,1.6968199999998403
409,13.668466666666518,0.0918423855106489,-1.7308768193475568,0.0595811146467913,17.407890347733336,78.4012816784,540.3599826666666,1.5152719999999955,1.6367599999999918
410,13.70183333333307,0.0686900958459673,-0.0694000710219555,-0.4518991835268975,17.40789061466667,78.40128127433333,540.3466066666664,1.486393333333612,1.57834999999967
411,13.735200000000077,0.1783599574019791,0.4359957401579282,0.089456869008616,17.4078908816,78.4012808072,540.3212479999999,1.5117520000000997,1.5483199999998822
412,13.768566666666175,-0.0127795527156549,0.8064181753628601,-0.6098402555904809,17.407891148533334,78.40128034006666,540.2958893333334,1.537110666666587,1.5182900000000945
413,13.801933333333182,-0.1846290379807567,0.1261625842794909,-0.1354987575491602,17.407891409666668,78.40127987486667,540.2702213333337,1.5573653333339574,1.491353333333101
414,13.835300000000188,-0.2229818956275856,-0.0101384451789672,0.0642172524174361,17.4078915765,78.4012794411,540.239524,1.4946359999999272,1.514710000000027
415,13.86866666666674,-0.2722044728422106,-0.2335818246325217,-0.2490592829254592,17.407891743333334,78.40127900733333,540.2088266666667,1.431906666666752,1.538066666666635
416,13.902033333333293,-0.228668796593142,0.3019737309167116,-0.374653887116508,17.407891920333334,78.40127858576666,540.1806506666666,1.3712310000001129,1.556136666666913
417,13.935399999999845,-0.3957401490935467,0.3246006389828902,-0.7305644302416725,17.407892254,78.4012783522,540.1913279999999,1.342202000000186,1.492740000000406
418,13.968766666666852,-0.4372168974090452,0.4971175008897728,-0.623017394394647,17.407892587666666,78.40127811863333,540.2020053333333,1.3131729999998636,1.4293433333330354
419,14.002133333333404,-0.2697195598152902,0.3196734114382827,0.2377706780261528,17.407892929866666,78.40127789573333,540.2147093333334,1.2837173333332554,1.3682933333332752
420,14.035499999999956,-0.2249201277969218,0.7667731629422028,-0.3416400426031194,17.407893397,78.401277829,540.257085,1.248015000000012,1.3416000000000092
421,14.068866666666509,-0.3055910543143279,0.8176073837305676,-0.6449236776745,17.40789386413333,78.40127776226666,540.2994606666666,1.212312666666769,1.314906666666743
422,14.10223333333306,-0.2710898118565372,0.6975434859587342,-0.3826056087998692,17.40789431563333,78.40127767766666,540.3397816666668,1.1773026666664577,1.2875433333330308
423,14.135600000000068,-0.2184025559105198,0.9482854100080036,-0.435186368476433,17.407894549199998,78.401277344,540.3514600000001,1.1519439999998549,1.25083999999979
424,14.16896666666662,-0.1603549875739355,0.6207667731684312,-0.14029818956143,17.407894782766665,78.40127701033333,540.3631383333334,1.126585333333252,1.2141366666665492
425,14.202333333333172,-0.2678381256664492,-0.7019879304556493,-0.010827121046687,17.407895016333335,78.40127668133333,540.3731833333334,1.1032100000000011,1.1781333333333237
426,14.235700000000179,-0.3001277955264649,-0.4307987220279681,-0.2204259850859249,17.4078952499,78.4012764144,540.361505,1.1062130000000208,1.1514399999998153
427,14.269066666666731,-0.3307916222907814,-0.2528079517179291,-0.1529286474898989,17.407895483466667,78.40127614746666,540.3498266666667,1.1092159999999995,1.1247466666666706
428,14.302433333333283,-0.2471281505158516,0.1268583599463364,-0.2823997160098738,17.407895714600002,78.4012758781,540.339292,1.1097856666668755,1.1002433333333104
429,14.33580000000029,-0.1398296059603285,-0.6935569755238365,0.2134185303477085,17.4078959148,78.4012755778,540.343296,1.0794219999998718,1.1035800000000142
430,14.369166666666843,-0.1498047568332524,-0.2532481363192582,0.0827121050776137,17.407896115,78.4012752775,540.3473,1.0490583333332817,1.1069166666666723
431,14.402533333333395,-0.1625559105427512,-0.1157827476154412,-0.2160170393999867,17.4078963228,78.40127498986666,540.3534826666667,1.0187200000000245,1.107720000000025
432,14.435899999999947,-0.1017039403619904,-0.2620447284375383,0.060894568690673,17.4078966231,78.4012748564,540.3861819999998,0.9886900000001002,1.0776900000001004
433,14.469266666666954,-0.0964714234970366,-0.6090876819227897,0.0101384451650197,17.4078969234,78.40127472293332,540.4188813333335,0.9586599999997668,1.0476599999997669
434,14.502633333333051,-0.1727937522206972,-0.629698260568917,-0.2993184238489003,17.407897228966668,78.40127459736667,540.4542930000003,0.928787999999853,1.0176299999998424
435,14.536000000000058,-0.1324813631546917,0.2802981895539119,-0.3150159744447301,17.407897596,78.40127456399999,540.5213600000002,0.9007599999999236,0.9875999999999182
436,14.56936666666661,-0.1591764288242549,0.7154632588079157,-0.2292154774551604,17.40789796303333,78.40127453063333,540.588427,0.8727319999999943,0.957569999999994
437,14.602733333333617,-0.1654100106504059,-0.1894355697555776,0.1012282570187054,17.407898305466666,78.40127447813333,540.6469659999996,0.8442666666662892,0.9278133333330314
438,14.63610000000017,-0.2429818956336063,0.3815761448346014,-0.0890521831731665,17.407898372200002,78.4012742112,540.6099289999996,0.8108999999997066,0.9011199999997652
439,14.669466666666722,-0.2840752573653955,0.2661838835708009,-0.0247923322656043,17.407898438933334,78.40127394426666,540.5728919999998,0.7775333333331241,0.8744266666664993
440,14.702833333333274,-0.2369897053611905,-0.1942137025250351,0.2340788072403517,17.40789850566667,78.40127368866668,540.538915,0.7411916666664368,0.8471666666665545
441,14.73620000000028,-0.2232587859417868,-0.1391693290637617,0.0188285410014174,17.4078985724,78.4012735552,540.537914,0.6727899999993213,0.8137999999996689
442,14.769566666666833,-0.1578913738017929,-0.3699609513855881,0.2499041533557484,17.407898639133336,78.40127342173334,540.5369129999999,0.6043883333331382,0.7804333333332382
443,14.802933333333385,-0.1123890663824667,-0.240042598503386,0.0071707490242523,17.407898723466666,78.4012732912,540.5386106666665,0.5437306666665915,0.744133333333588
444,14.836299999999937,-0.0538019169330467,0.2238551650706173,-0.0243237486711676,17.4078989904,78.4012731911,540.5683069999998,0.5634169999998753,0.6774000000004229
445,14.869666666666944,-0.0642527511553238,0.3024494142910344,-0.0433084842163547,17.407899257333334,78.40127309100001,540.5980033333335,0.5831033333334272,0.6106666666663484
446,14.903033333333042,-0.0446290379825676,0.0968832090873667,0.0080227191993133,17.407899512133334,78.40127299393333,540.6250606666666,0.5970263333332351,0.5515166666667042
447,14.936400000000049,0.0476570820034011,0.0105963791378812,0.0786474973390823,17.4078996456,78.4012729272,540.625728,0.5533160000000119,0.5681999999999955
448,14.969766666666601,0.1035782747588064,-0.3717429889944295,0.1191338303106827,17.407899779066668,78.40127286046666,540.6263953333333,0.5096056666667887,0.5848833333332867
449,15.003133333333608,0.1352218672352976,-0.227035853761484,0.2036066737792963,17.407899918800002,78.40127279373334,540.6281593333334,0.4681199999998335,0.595926666666306
450,15.03650000000016,0.1768903088397911,-0.2435569755077362,0.107348242816112,17.407900119,78.401272727,540.6405050000001,0.448099999999884,0.5525499999997487
451,15.069866666666712,0.1431309904139794,-0.0772807951675641,0.1394036208689471,17.4079003192,78.40127266026667,540.6528506666667,0.4280799999999345,0.5091733333331914
452,15.103233333333264,0.1122612708555613,0.1222648207308301,0.0047071352504832,17.407900506466667,78.40127259353333,540.6639353333334,0.4072839999999789,0.468059999999985
453,15.136600000000271,0.0476677316267506,-0.0719914802973371,0.0086474973271945,17.4079005732,78.4012725268,540.663268,0.3792559999996676,0.4480399999997626
454,15.169966666666824,-0.0383244586474704,0.0488178913819844,0.0098970535852813,17.407900639933334,78.40127246006666,540.6626006666667,0.3512279999997383,0.4280199999998131
455,15.203333333333376,-0.0345047923319584,0.6521121760771952,-0.0188853390138577,17.407900713333333,78.40127238666666,540.6638666666668,0.3253333333332909,0.4073333333331635
456,15.236699999999928,0.0040255591054254,0.3709691160813071,-0.2621512247072011,17.4079008468,78.4012722532,540.682552,0.3186600000000047,0.3806400000000189
457,15.270066666666935,0.0629605963774452,-0.5469080582776938,0.0512744053930887,17.407900980266668,78.40127211973333,540.7012373333334,0.3119866666666276,0.3539466666665105
458,15.303433333333032,0.1995811146604076,-0.0578487753051037,0.5311324103661409,17.407901103433332,78.40127198283334,540.7178283333333,0.3044893333333443,0.3293133333333383
459,15.33680000000004,0.1456443024487091,0.0656017039723445,0.1101171458880574,17.4079011368,78.401271816,540.71616,0.289808000000048,0.3226400000000218
460,15.370166666666591,0.1341853035134084,-0.2852325168765999,0.2612708555226397,17.407901170166667,78.40127164916666,540.7144916666666,0.2751266666667517,0.3159666666667053
461,15.403533333333598,0.1256940007106776,0.2646503372298487,0.2261838835696129,17.407901203533335,78.40127148586666,540.7149433333334,0.2606219999999308,0.3082333333332446
462,15.43690000000015,0.1263045793404204,-0.2461554845686057,0.0593397231164556,17.4079012369,78.4012713524,540.733295,0.2476089999999636,0.2915499999999534
463,15.470266666666703,0.1003336883210082,-0.0094568690119441,0.3592332268368708,17.407901270266667,78.40127121893333,540.7516466666667,0.2345959999999964,0.2748666666666621
464,15.503633333333255,-0.0510827121053604,0.7063968761112165,-0.3314802981898268,17.407901310899998,78.4012710891,540.7713426666667,0.2214376666666989,0.2589100000000225
465,15.537000000000262,0.1058572949960117,-0.2898828540901689,0.0611288604807587,17.407901410999997,78.401270989,540.8020400000003,0.2070899999998729,0.2488999999999113
466,15.570366666666814,0.3052893148750448,-0.5850337238177912,0.7663045793440701,17.4079015111,78.4012708889,540.8327373333335,0.1927423333332424,0.2388899999999365
467,15.603733333333366,0.3429747958850989,0.6720198792907857,-0.0084629037868887,17.4079016112,78.4012707888,540.8656373333336,0.1819786666667341,0.2281333333332696
468,15.637099999999919,0.4122470713522411,0.0675612353373056,-0.1080298189473403,17.4079017113,78.4012706887,540.9160210000001,0.1996630000000229,0.2114499999999784
469,15.670466666666925,0.5082428114998074,-0.6439474618558826,0.9995314163919876,17.4079018114,78.4012705886,540.9664046666672,0.2173473333335526,0.1947666666664597
470,15.703833333333023,0.5005324813639271,0.1135960241299859,0.4730919417868289,17.407901911499998,78.40127048466667,541.0163666666671,0.2314666666665417,0.1819166666668228
471,15.73720000000003,0.4646219382320107,0.7784025559165639,-0.2546538871147994,17.407902011599997,78.4012703512,541.06308,0.2181199999999694,0.1986000000000382
472,15.770566666666582,0.4796734114308349,-0.5977067802675428,0.6372381966695805,17.4079021117,78.40127021773334,541.1097933333331,0.2047733333333971,0.2152833333332536
473,15.803933333333589,0.4466276180323477,0.1167554135561747,0.728949236791407,17.407902215733333,78.40127008426667,541.1561133333333,0.195989333333392,0.2284266666666357
474,15.837300000000141,0.1660702875353527,1.2755058572922244,-0.4056017039389014,17.4079023492,78.4012699508,541.19949,0.2213479999999948,0.2150800000000027
475,15.870666666666693,0.1696130635426339,-0.1838835640701562,0.4186723464662529,17.407902482666668,78.40126981733333,541.2428666666665,0.2467066666665975,0.2017333333333697
476,15.90403333333279,0.0397089101902716,-1.4174511892126755,0.7656656017075357,17.407902616133335,78.4012696879,541.2851543333331,0.2698469999999632,0.1932266666665266
477,15.937400000000252,0.0371884983988016,0.5179978700141856,-0.7884984025139518,17.4079027496,78.4012695878,541.3195220000001,0.276854000000041,0.2199200000001564
478,15.970766666666805,0.0634646787366691,1.3743272985377888,-0.3646929357399355,17.40790288306667,78.4012694877,541.3538896666668,0.2838610000000234,0.2466133333334224
479,16.004133333333357,0.1462406815764702,-0.9569755058531108,1.0709549165773464,17.407903016533336,78.40126937933334,541.3851573333334,0.2932240000000212,0.2708266666666721
480,16.03749999999991,-0.0619808306734834,-0.7029818955969631,0.2995740148753455,17.40790315,78.40126921250001,541.3945,0.3192499999999556,0.2774999999999886
481,16.070866666666916,-0.1239758608436926,0.7312602058694859,-1.2118849840230483,17.407903283466666,78.40126904566667,541.4038426666668,0.3452760000002447,0.284173333333396
482,16.104233333333013,0.1242527511526583,0.2614625488392318,0.0117216897156579,17.407903412699998,78.40126887883333,541.4137780000001,0.3679576666666643,0.2933866666668503
483,16.13760000000002,0.2000851970164926,-1.5693716719920692,1.223173588922094,17.407903512799997,78.401268712,541.4277920000001,0.3676239999999985,0.3200800000001164
484,16.170966666666573,0.1201561945332739,0.0184096556636957,0.0841178558739182,17.4079036129,78.40126854516667,541.441806,0.3672903333333327,0.3467733333333824
485,16.20433333333358,0.2279020234307296,1.593397231064987,-1.0429534966302008,17.407903734666665,78.40126837833334,541.4584200000004,0.3770533333342898,0.37
486,16.23770000000013,0.4527582534629905,1.0975079873479976,0.5402768902534714,17.4079040016,78.4012682115,541.4924540000002,0.4544640000004093,0.37
487,16.271066666666684,0.6284416045482977,-2.05330493433529,1.751977280802922,17.407904268533333,78.40126804466666,541.526488,0.5318746666665288,0.37
488,16.30443333333278,0.5113241036585415,-0.0502875399134432,0.0041036563586567,17.4079045266,78.40126788226667,541.5602559999998,0.5982463333333801,0.3801966666660338
489,16.33779999999979,0.627476038327074,1.400340788032051,-1.0023855165634177,17.407904726800002,78.4012677488,541.5922880000002,0.5925739999999837,0.4569400000002196
490,16.371166666666795,0.8970891018811178,1.4449769258149257,1.4004259850819984,17.407904927,78.40126761533334,541.62432,0.5869016666666647,0.5336833333333595
491,16.404533333333347,0.9806460773747824,-2.887397941064947,2.311111111079464,17.4079051,78.4012674592,541.6525893333334,0.5831786666666477,0.5990933333333479
492,16.4378999999999,0.4739936102265246,-0.5040042598137816,-0.5931416400667278,17.4079051,78.4012671589,541.656927,0.5918539999999591,0.5924200000000314
493,16.471266666666907,0.567781327649938,1.1002910898031537,-1.1565779197966597,17.4079051,78.4012668586,541.6612646666666,0.6005293333333889,0.5857466666666239
494,16.504633333333004,0.7965069222556134,2.3684700035529938,1.305580404641444,17.407905123166667,78.4012665583,541.6654169999999,0.6127723333334668,0.5813900000000388
495,16.53800000000001,0.7763578274760383,-1.8445154419595315,2.68370607028754,17.40790529,78.40126625799999,541.66842,0.6471400000000468,0.5914000000000136
496,16.571366666666563,-0.2428399006042808,-2.1651757188129666,-0.8710188143688178,17.407905456833333,78.40126595769999,541.671423,0.6815076666666269,0.6014099999999883
497,16.60473333333357,-0.2079659211981977,1.4635853744885894,-2.937067802717433,17.407905618933334,78.40126566213333,541.67329,0.71085799999999,0.6147333333336653
498,16.638100000000122,0.051075612353091,2.486900958469127,0.9928434504700744,17.4079057524,78.4012653952,541.668285,0.7098569999999925,0.6481000000002478
499,16.671466666666674,0.2176925807506101,-1.8939155128576872,2.274291799795659,17.40790588586667,78.40126512826667,541.66328,0.708855999999995,0.6814666666668303
500,16.704833333333227,-0.8329428470067735,-2.4792687255124752,-1.4380901669170687,17.407906058000002,78.4012648565,541.6626733333334,0.7241916666668596,0.71
501,16.73819999999978,-0.7049201278184011,0.6372736953219816,-3.076805111868717,17.4079064584,78.4012645562,541.6880320000002,0.8359700000009262,0.71
502,16.771566666666786,-0.2457152999721194,1.6944337947878283,0.0215406460438408,17.4079068588,78.4012642559,541.7133906666667,0.9477483333334692,0.71
503,16.804933333333338,-0.3149307774219998,0.5271423500025788,1.1780475683466125,17.4079072296,78.4012639556,541.7341613333334,1.0421613333333626,0.7262799999994297
504,16.83829999999989,-0.4715654952105347,-2.02483493077578,-0.0373375931949238,17.4079074298,78.4012636553,541.7284890000001,1.0364890000000435,0.8363899999991521
505,16.871666666666897,-0.4494142704998544,0.3173588924197804,-2.0969116080788006,17.40790763,78.401263355,541.7228166666666,1.0308166666666474,0.9465000000003752
506,16.905033333332995,-0.0752431664932124,2.332715654918393,-0.866503372425155,17.407907840266667,78.40126304463332,541.716188,1.0312346666666974,1.0394966666666638
507,16.9384,0.3362300319480914,-0.0467731629112315,1.4887752928559472,17.4079081072,78.4012626776,541.704176,1.0659359999999432,1.0361600000000055
508,16.971766666666554,0.1620163294157105,-1.8726020588781087,0.7800283989376042,17.40790837413333,78.40126231056666,541.692164,1.100637333333189,1.0328233333333472
509,17.00513333333356,0.1970607028799439,0.6294213702056733,-1.0915015974152416,17.40790863593333,78.40126192813334,541.6847206666669,1.1383160000003756,1.0351333333335653
510,17.038500000000113,0.2550585729499467,2.419062832800852,-0.8706070287539938,17.407908869499998,78.401261461,541.7024050000001,1.1923700000002393,1.0685000000001477
511,17.071866666666665,0.3609939652116747,-1.264408945705637,1.2372310969145603,17.407909103066668,78.40126099386667,541.7200893333334,1.2464240000001032,1.1018666666667305
512,17.105233333333217,-0.1098189563491816,-3.1287681931120237,0.4527014554235443,17.407909352333334,78.40126054243333,541.735,1.294407333333324,1.1383733333333006
513,17.138600000000224,-0.207199148033143,0.2618956336214635,-2.155271565497881,17.407909686,78.4012601754,541.735,1.3097560000001611,1.19176000000056
514,17.171966666666776,-0.0177990770384084,2.138509052146883,-0.7212992545637306,17.407910019666666,78.40125980836666,541.735,1.3251046666667892,1.2451466666670925
515,17.20533333333333,-0.0883919062828926,0.7165069222461562,0.9819666311732492,17.407910332,78.40125942533332,541.73484,1.3400800000000617,1.2926666666667457
516,17.23869999999988,-0.4219169329045355,-2.2608519701788814,0.154462193829694,17.407910532200003,78.4012589582,541.733839,1.3530929999999697,1.309349999999961
517,17.272066666666888,-0.589762158332592,0.3593752217509381,-2.303045793336048,17.4079107324,78.40125849106667,541.732838,1.3661060000000549,1.3260333333334038
518,17.305433333332985,-0.4163933262372798,1.752126375573691,-1.4442314519321535,17.407910981500002,78.40125804566668,541.7367813333333,1.3843893333332375,1.3421733333333052
519,17.338799999999992,-0.4126943557019518,-1.0919275824655554,0.5226411075409649,17.407911482,78.401257712,541.7661439999998,1.4297679999997897,1.355519999999938
520,17.372166666666544,-0.7493077742359606,-3.194071707463841,-0.3430954916885282,17.4079119825,78.40125737833333,541.7955066666665,1.475146666666342,1.3688666666665712
521,17.40553333333355,-0.3646148384854882,1.0699893503420874,-1.186524671635528,17.407912455333335,78.40125701146667,541.8154626666666,1.5235686666669184,1.3871933333335047
522,17.438900000000103,-0.2288178913712758,3.0375505857258887,-0.5859211927587339,17.407912789,78.4012564776,541.788102,1.587299000000091,1.430570000000062
523,17.472266666666656,-0.3844657436997092,1.4197231096083127,-0.4235569754903445,17.407913122666667,78.40125594373333,541.7607413333334,1.6510293333332635,1.4739466666666194
524,17.505633333333208,-0.4547390841341862,-3.3767412140676507,0.4280014199507847,17.407913473233336,78.4012554155,541.7426193333333,1.708337666666574,1.5207033333331044
525,17.539000000000215,-0.2095846645463882,-0.7028753994255297,0.490734824297771,17.407913907,78.401254915,541.7699800000003,1.7340300000001925,1.5841000000004752
526,17.572366666666767,-0.2321334753290143,1.6558608448434993,-1.0788924387626906,17.407914340766666,78.4012544145,541.7973406666669,1.759722333333461,1.647496666666982
527,17.60573333333332,-0.2985871494501128,0.6745473908544739,-1.1558395456231354,17.407914757333334,78.40125390253333,541.8147826666666,1.7819746666666805,1.7045866666667322
528,17.63909999999987,-0.1553567625128509,-2.440660276894952,0.72374866881207,17.407915091,78.4012533353,541.7844190000001,1.7876469999999995,1.7312799999999982
529,17.672466666666878,0.012467163649196,-1.9239190628812608,1.4543272986164026,17.407915424666665,78.40125276806666,541.7540553333331,1.793319333333396,1.757973333333628
530,17.705833333332976,-0.4162229321973408,1.3199503017387482,-2.1699325523640702,17.40791577,78.40125218333333,541.7257333333332,1.813458333334016,1.7811666666667183
531,17.739199999999983,-0.1442811501581016,2.343130990480579,-0.523024494176582,17.4079161704,78.401251516,541.707048,1.901880000000058,1.7878400000000043
532,17.772566666666535,0.0875683351049444,-2.667774227942595,1.5408164714158343,17.4079165708,78.40125084866666,541.6883626666668,1.9903016666660995,1.7945133333332906
533,17.805933333333087,-0.3650266240712299,-0.7953425630510575,-0.4806815761320419,17.407916977133333,78.40125019913333,541.6723473333333,2.0640086666666724,1.8154266666667496
534,17.839300000000094,-0.0248775292866609,2.961938232133081,-0.949179978692625,17.4079174109,78.4012496319,541.668677,2.0696809999999912,1.902179999999864
535,17.87266666666619,-0.2577209797662892,2.248136315202428,-0.5560525381528603,17.407917844666667,78.40124906466667,541.6650066666667,2.07535333333331,1.9889333333329784
536,17.9060333333332,-0.3717713880011668,-4.056847710328624,0.5405892793751081,17.407918284466668,78.40124850346668,541.6628446666666,2.0839216666665235,2.0612066666666227
537,17.939400000000205,-0.4414909478275117,-2.0578487754140378,0.0026411075789176,17.4079187516,78.4012479696,541.6675160000001,2.1056100000000977,2.06788000000003
538,17.972766666666757,-0.0701952431662315,3.3036279730542755,-0.0764075257380365,17.407919218733333,78.40124743573334,541.6721873333333,2.127298333333376,2.0745533333333466
539,18.00613333333331,-0.2823287184912702,3.011643592478803,-0.4285126020555908,17.407919704266668,78.40124690186667,541.6766133333334,2.150581333333317,2.0842933333333207
540,18.03949999999986,-0.5226837060787722,-1.7231096913316666,-0.3117145899799938,17.4079202715,78.401246368,541.6799500000001,2.180944999999907,2.1076499999999285
541,18.07286666666687,-0.5987362442333154,-2.7947035854485,0.5352076677351046,17.407920838733336,78.40124583413333,541.6832866666667,2.211308666666911,2.1310066666668543
542,18.10623333333342,-0.1078878239280428,1.4149236776492782,-0.0188640397546398,17.407921443366668,78.4012453252,541.6972823333336,2.249090000000387,2.155610000000166
543,18.139599999999973,-0.1938232161909202,3.0541853035196307,-0.762342918008168,17.407922210800002,78.4012449248,541.7576760000002,2.31916000000021,2.18564000000009
544,18.172966666666525,-0.4350372736969704,1.3753212636957215,-0.6326446574228974,17.407922978233334,78.4012445244,541.8180696666667,2.3892300000000337,2.2156700000000145
545,18.206333333333077,-0.5846645367442166,-2.919417820380516,0.0347887823683371,17.407923701333335,78.40124407333333,541.8657966666666,2.4519533333336696,2.2533000000007517
546,18.239700000000084,-0.164345047932528,0.3413205537352881,0.4333546325803277,17.4079242352,78.40124340599999,541.8594569999999,2.4833180000001147,2.323370000000256
547,18.273066666666182,-0.2219382321615643,1.535349662760504,-0.3024352147657758,17.407924769066668,78.40124273866667,541.8531173333333,2.51468266666656,2.3934399999997606
548,18.30643333333319,-0.309584664536654,0.2812495562681923,-0.1957259495920316,17.4079253158,78.40124209063333,541.8474853333333,2.5400643333333304,2.455789999999712
549,18.339800000000196,-0.2102236421613659,-1.5969755057199817,0.4042598509128894,17.4079259164,78.4012415234,541.844816,2.5403980000000006,2.485820000000045
550,18.373166666666748,-0.2004614838474324,-3.0627973020728207,0.7346467873570828,17.407926517,78.40124095616666,541.8421466666667,2.5407316666666664,2.5158499999999693
551,18.4065333333333,0.1771671991534809,0.5602981896377288,-0.0509478168343843,17.407927130666668,78.40124037586666,541.8457493333333,2.5540666666664302,2.54
552,18.439899999999852,0.3978913737989763,2.332438764649971,0.3782534611335058,17.407927798,78.4012397419,541.8751119999998,2.6207999999995955,2.54
553,18.47326666666686,0.2820163294305259,0.7667305644462382,1.165850195246989,17.407928465333335,78.40123910793334,541.9044746666668,2.6875333333336697,2.54
554,18.50663333333341,-0.0031948881715525,-2.902946396855743,0.5708555200701708,17.407929092866667,78.40123845406667,541.9201726666665,2.73781599999996,2.553266666666835
555,18.539999999999964,0.055165069231643,-1.1439829605581588,-0.0374866879621824,17.40792956,78.40123772,541.8808,2.7218,2.62
556,18.573366666666516,0.3728931487390089,3.460425985097542,0.7195172168991959,17.407930027133336,78.40123698593334,541.8414273333334,2.7057840000000404,2.6867333333331653
557,18.606733333333068,0.0427831025975255,2.5062690806992007,0.7207525736636967,17.407930514466667,78.40123625860001,541.8082493333332,2.697511333333525,2.7366333333331903
558,18.640100000000075,-0.1861128860464196,-0.0269222576817951,0.3544621938315769,17.4079310817,78.4012355579,541.7995739999999,2.719867000000136,2.719949999999899
559,18.673466666666627,-0.2840752573653232,-1.0812211572452126,-0.4956762513340781,17.407931648933335,78.4012348572,541.7908986666666,2.7422226666667457,2.7032666666666074
560,18.70683333333318,-0.2348242811529201,-3.828363507307513,1.0500532481572369,17.407932216166667,78.40123414966666,541.7794216666666,2.766286666666669,2.6947833333333358
561,18.740200000000186,0.1047497337451694,0.7694142703758339,-0.0874547390801259,17.4079327834,78.4012334156,541.7570659999999,2.796984000000204,2.7181400000001554
562,18.77356666666674,0.4562371317008373,2.342442314519816,1.2746538871153843,17.407933350633332,78.40123268153333,541.7347103333333,2.82768133333332,2.7414966666666567
563,18.80693333333329,0.6190273340410355,0.1268441603208188,0.5629818956412155,17.4079339248,78.40123194746667,541.7121466666669,2.8540106666666034,2.7662399999998035
564,18.840299999999843,0.3962726304502046,-5.370628328022703,1.1332268370678895,17.407934525399998,78.4012312134,541.6887900000003,2.863686999999912,2.796269999999728
565,18.87366666666685,0.4753993610170177,-0.6905218317607623,-0.4736244231253793,17.407935125999998,78.40123047933334,541.6654333333333,2.873363333333353,2.826300000000061
566,18.907033333333402,0.5400212992453982,-0.1086190983783587,-0.1081221157399216,17.40793577583333,78.40122978746668,541.661559,2.88676733333332,2.8521099999999957
567,18.940399999999954,0.7671565495210496,0.0147816826451137,0.7367838125675752,17.40793661,78.40122925360001,541.7306279999998,2.9141279999999177,2.86211999999997
568,18.973766666666506,0.8702236421773881,1.9569400071340104,0.7697053603217513,17.407937444166667,78.40122871973334,541.7996969999997,2.9414886666665154,2.872129999999945
569,19.00713333333306,0.4221086261984627,0.5630812922538085,0.3761874334195166,17.4079382498,78.40122815733334,541.8563540000001,2.965853333333408,2.885706666666816
570,19.040500000000065,0.0605963791220619,-2.289030883918559,0.5464323748535327,17.4079389505,78.40122749,541.8673650000001,2.979200000000041,2.9124000000000816
571,19.073866666666618,-0.4644515441999979,-1.445708200232554,-1.455150869718258,17.4079396512,78.40122682266667,541.878376,2.9925466666666742,2.939093333333348
572,19.10723333333317,0.0209868654686404,1.9120482783722896,-1.0471352502163318,17.40794033743333,78.40122611916667,541.8834556666667,3.009654666666606,2.962893333333307
573,19.140600000000177,0.1161235356805052,2.907603833859085,0.2850692225597405,17.4079409714,78.401225285,541.8671059999998,3.0403520000002806,2.976240000000122
574,19.17396666666673,-0.0543840965564396,0.6163294284924229,0.1337238196674868,17.407941605366666,78.40122445083333,541.8507563333332,3.071049333333536,2.9895866666667548
575,19.20733333333328,0.156975505854273,-0.4171813986699796,1.054455094068634,17.407942239333334,78.40122365333333,541.8319133333332,3.0827533333331614,3.0073333333334364
576,19.240700000000288,0.1003620873274549,-0.1359744409663364,0.2148029819514625,17.4079428733,78.401222986,541.8042189999998,3.0270309999994622,3.040700000000322
577,19.27406666666684,0.2078523251685364,0.878778842731123,-0.7889953851611061,17.407943507266666,78.40122231866667,541.7765246666665,2.971308666666523,3.0740666666667527
578,19.307433333333393,0.2351437699647191,-0.0678949236582906,-0.045246716388306,17.407944118933333,78.40122161416667,541.7550743333334,2.928817666666654,3.0873633333335304
579,19.340799999999945,0.0646219382322548,-0.7991480298226176,0.4903514377004243,17.4079446528,78.40122078,541.755408,2.932487999999978,3.03064000000034
580,19.37416666666695,-0.0361732339370963,0.1305644302382776,0.0335463258859554,17.40794518666667,78.40121994583333,541.7557416666666,2.9361583333333523,2.9739166666663768
581,19.40753333333305,-0.1329357472480403,0.359290024850866,-0.3810862619684638,17.407945735600002,78.40121913426665,541.7549453333332,2.935082666666622,2.930753333333342
582,19.440900000000056,-0.2982747603837507,-0.6867944621934163,-0.7428966986165906,17.407946336200002,78.4012184002,541.750274,2.9177319999999987,2.9340900000000003
583,19.474266666666608,-0.2382250621222716,-0.1932694355629788,-0.437373091941228,17.407946936800002,78.40121766613333,541.7456026666666,2.900381333333376,2.937426666666658
584,19.507633333333615,-0.1527653532134601,1.186744763905862,-0.222726304583706,17.407947529766666,78.40121695496666,541.7424579999999,2.87325999999948,2.936183333333189
585,19.541000000000167,-0.1354632587848188,0.449627263039052,-0.0244941427032619,17.407948097000002,78.40121632099999,541.74446,2.813199999999632,2.9194999999998976
586,19.57436666666672,-0.129222577208488,-1.2896059637879431,0.0246077387300174,17.407948664233334,78.40121568703333,541.7464620000001,2.753139999999783,2.9028166666666064
587,19.60773333333327,-0.0089314873972799,0.4351863684807916,-0.4515299964513227,17.407949246933335,78.40121504533333,541.7510933333334,2.707,2.8760799999999347
588,19.64110000000028,0.0030670926545893,-0.1113738019435048,-0.4275399361233107,17.4079498809,78.40121437799999,541.7644400000001,2.707,2.816019999999268
589,19.67446666666683,0.0899964501267458,-1.7772665957633076,0.3879730209569952,17.407950514866666,78.40121371066667,541.7777866666668,2.707,2.7559599999994187
590,19.707833333333383,0.2624423145192146,0.0752573659911248,0.0790202342936012,17.4079511175,78.40121306683334,541.7912116666668,2.687494999999494,2.71
591,19.741199999999935,0.165452609159059,-0.04792332268235,-0.2446006389703675,17.407951618000002,78.4012124996,541.804892,2.6044120000000817,2.71
592,19.774566666666942,0.209222577207194,-0.0592900248831413,0.2110898118560064,17.4079521185,78.40121193236666,541.8185723333333,2.5213289999995365,2.71
593,19.80793333333304,0.1712034078806001,0.1311608093718192,-0.1116932907353434,17.407952619,78.40121134926667,541.8274133333333,2.4564133333333364,2.690166666666701
594,19.841300000000047,0.0093077742275417,-0.1919062832791553,-0.0286048988295987,17.4079531195,78.4012107153,541.82074,2.44974000000002,2.6067500000002446
595,19.8746666666666,-0.0198793042235126,0.1870784522392872,0.1906283280097788,17.40795362,78.40121008133333,541.8140666666667,2.443066666666703,2.523333333333788
596,19.908033333333606,-0.1150443734472444,0.8658785942735436,-0.4787788427354623,17.407954080333333,78.40120944736667,541.8045013333332,2.426512333333064,2.458393333333296
597,19.941400000000158,-0.2068583599582034,0.2363365282410039,0.047156549511387,17.407954414,78.4012088134,541.785816,2.3787979999998505,2.451719999999979
598,19.97476666666671,-0.233020944266875,-0.1214128505522473,-0.0415335463258785,17.40795474766667,78.40120817943334,541.7671306666667,2.331083666666637,2.4450466666666624
599,20.008133333333262,-0.1841675541353985,0.2542988995410318,-0.2215406460757652,17.407955097600002,78.4012075536,541.7494213333334,2.2889813333333806,2.4286133333334226
600,20.04150000000027,-0.1518636847685921,0.1266240681758915,-0.0466453674056898,17.407955498,78.401206953,541.7347399999999,2.264289999999773,2.38189999999957
601,20.07486666666682,-0.0824139155093306,-1.262506212283895,0.0510330138447246,17.4079558984,78.4012063524,541.7200586666665,2.239598666666502,2.3351866666663548
602,20.108233333333374,0.083514376997022,-0.1532410365624598,0.1307632232893132,17.407956274100002,78.40120576826666,541.7077649999999,2.2070856666664325,2.293413333333222
603,20.141599999999926,0.1565069222580192,0.3765708200223453,0.0879659211937074,17.4079565744,78.4012052344,541.7027599999999,2.150695999999908,2.2667199999999563
604,20.174966666666933,0.1108626198074543,0.2684345047594316,0.046290379832728,17.4079568747,78.40120470053333,541.6977549999999,2.094306333332615,2.2400266666663264
605,20.20833333333303,0.1906993255236195,-0.1887823926217341,0.0981185658509958,17.407957191666668,78.40120418333333,541.6914999999999,2.0422499999996453,2.2066666666661816
606,20.241700000000037,0.2820234291797888,-0.1302023429247507,0.3729073482383095,17.4079575587,78.4012037162,541.6814899999999,2.003210999999921,2.1532799999998926
607,20.27506666666659,0.2394604188847681,-0.2085197018106883,0.3138232161860735,17.40795792573333,78.40120324906667,541.6714800000001,1.9641720000001968,2.099893333333603
608,20.308433333333596,0.11929002485045,-0.4537664181698015,-0.0884274050299819,17.407958334933333,78.4012028241,541.6717586666667,1.932301333333305,2.049879999999894
609,20.34180000000015,0.0791480298177978,-1.160085197015687,0.3741427049903157,17.4079588688,78.4012025238,541.702456,1.9216239999999989,2.0098399999999947
610,20.3751666666667,0.1219382321631334,0.1689740859168081,0.214057507990901,17.407959402666666,78.4012022235,541.7331533333332,1.910946666666692,1.9698000000000957
611,20.408533333333253,0.1129428470004091,0.8575931842392723,0.0358395456158414,17.4079598768,78.40120185493333,541.7490880000001,1.9054746666666191,1.937440000000049
612,20.44190000000026,0.0778061767851026,1.020404685842342,0.1030244941452503,17.4079601771,78.4012012877,541.7220609999998,1.91515100000006,1.9274299999999376
613,20.475266666666812,-0.0099254526083218,0.2137451189310969,-0.2060631877837472,17.4079604774,78.40120072046666,541.6950339999999,1.924827333333369,1.917419999999963
614,20.508633333333364,0.026851260206089,-0.6576996805105777,-0.1667021654235385,17.407960760433333,78.40120017913333,541.672151,1.915941999999928,1.912590000000012
615,20.541999999999916,0.1256656017039403,-0.2411075612127695,-0.1084132055459034,17.407960994,78.401199712,541.66114,1.8538800000000848,1.9225999999999863
616,20.575366666666923,0.2234078807261272,-0.1316790912503932,0.1442456514077695,17.407961227566666,78.40119924486666,541.6501289999999,1.7918179999993953,1.9326100000000972
617,20.60873333333302,0.2397586084496987,0.0248349307908898,0.3784593539262493,17.407961452400002,78.401198769,541.6367599999999,1.7380526666664473,1.924279999999566
618,20.642100000000028,0.1540788072431955,-0.5724813631364359,0.1216400426096321,17.4079616526,78.4011982685,541.6167399999999,1.7076889999998572,1.864219999999717
619,20.67546666666658,0.1162229321973988,-0.8879091231803105,-0.0019595314164469,17.4079618528,78.401197768,541.59672,1.6773253333332672,1.804159999999869
620,20.708833333333587,0.1318423855152865,0.2568335108532241,0.0876109336053904,17.407962097166667,78.40119731166666,541.5815583333333,1.6435166666661425,1.752049999999637
621,20.74220000000014,0.1113099041538815,0.2519275825427783,0.2076251331176403,17.4079624642,78.401196978,541.57989,1.6001399999997823,1.7220199999998491
622,20.77556666666669,0.0473908413192945,-0.1574937877224832,-0.0090024849154791,17.407962831233334,78.40119664433334,541.5782216666666,1.5567633333334223,1.6919900000000616
623,20.80893333333279,0.042740504082964,-0.252878949261602,-0.2496840610462697,17.407963234,78.40119633746667,541.5926333333329,1.5350053333330378,1.6583866666670095
624,20.84230000000025,0.0300106496259031,-0.4486687965747429,-0.1092651757269083,17.4079637345,78.4011961039,541.6510250000001,1.5723760000001197,1.615009999999861
625,20.875666666666802,0.0316648917286409,-1.0125665601736484,0.003762868299519,17.407964235,78.40119587033334,541.7094166666667,1.6097466666666922,1.5716333333333037
626,20.909033333333355,-0.0030315938955981,-0.5744905928293956,-0.4846787362464423,17.407964690333333,78.4011955916,541.7505546666666,1.6248050000000829,1.5499366666665992
627,20.942399999999907,0.0725452609167047,-0.0141427050078585,-0.2097550585732521,17.407965024,78.4011951912,541.745216,1.5797600000001966,1.58663999999984
628,20.975766666666914,0.0147248846257137,0.2086545971020788,-0.261221157269788,17.40796535766667,78.4011947908,541.7398773333333,1.534714999999696,1.623343333333581
629,21.00913333333301,-0.0076393326246315,-0.0629179978787684,-0.1876606318900909,17.407965645666668,78.40119437213333,541.7333513333333,1.496337333333246,1.6372133333331358
630,21.042500000000018,0.0550585729504406,0.5181043663491635,0.0322683706086656,17.4079658125,78.401193905,541.723675,1.4756499999999648,1.5904999999999203
631,21.07586666666657,0.0068441604545829,0.3481576144843881,0.2085481008164571,17.407965979333333,78.40119343786667,541.7139986666666,1.4549626666666835,1.5437866666667048
632,21.109233333333577,-0.0668725594574924,-0.3985516506969989,0.1528150514834834,17.407966192333333,78.40119300766666,541.7091236666668,1.4346446666664674,1.5053833333331617
633,21.14260000000013,-0.1221725239590035,-0.7847071352446795,0.0582747604024249,17.407966526,78.401192674,541.716798,1.4152919999998497,1.4886999999998705
634,21.17596666666668,-0.1413205537805595,-0.1977067802623898,-0.3166631167909407,17.40796685966667,78.40119234033334,541.7244723333334,1.3959393333332315,1.472016666666579
635,21.20933333333278,-0.1726659566904761,0.367483138089986,-0.6949946751881313,17.407967174666666,78.40119202533333,541.73112,1.3684666666665963,1.4543999999999708
636,21.242699999999786,-0.1061128860493834,0.93797657084663,-0.3230457934177145,17.4079674416,78.4011917584,541.735124,1.3200849999996125,1.4343799999998397
637,21.276066666666793,-0.1425630102944201,0.5569187078536999,0.0880653177107404,17.407967708533334,78.40119149146666,541.7391279999999,1.2717033333332877,1.414359999999981
638,21.309433333333345,-0.1510401135937821,-0.3524600638897359,0.0571388001429351,17.407967966033333,78.40119122453332,541.7437923333333,1.2287930000001406,1.385850000000242
639,21.342799999999897,-0.2048988285416597,-0.8293929712428681,0.0176783812542539,17.4079681996,78.4011909576,541.7501319999999,1.1997640000002137,1.3358000000003682
640,21.376166666666904,-0.1879659211934846,0.1902378416693327,-0.6491302804394679,17.407968433166666,78.40119069066667,541.7564716666667,1.170734999999891,1.2857499999998123
641,21.409533333333002,-0.1674831380921814,-0.039204827842459,-0.1512815051613215,17.407968666733332,78.4011904142,541.7576633333333,1.147425999999989,1.242373333333301
642,21.44290000000001,-0.1225985090506953,-0.4947177848783893,0.3041959531484278,17.407968900300002,78.4011901139,541.745985,1.1384170000000116,1.2156800000000345
643,21.47626666666656,-0.1890379836698276,0.0178629747967654,0.1178842740480138,17.40796913386667,78.4011898136,541.7343066666667,1.1294080000000344,1.1889866666667686
644,21.509633333333568,-0.2370820021297937,0.8004472843317435,-0.5070784522448625,17.407969367433335,78.4011895422,541.725422,1.107393999999606,1.167109999999927
645,21.54300000000012,-0.2545260915867944,-0.1309904153354632,-0.3216187433439829,17.407969601,78.401189342,541.72342,1.053339999999742,1.1570999999999525
646,21.576366666666672,-0.2627547035862126,-0.0652822151337643,-0.1299822506199213,17.407969834566668,78.4011891418,541.721418,0.9992859999998784,1.1470899999999773
647,21.609733333333224,-0.2250479233215252,0.225488107918302,-0.3983386581459846,17.407970116799998,78.40118896106667,541.7291493333333,0.9704413333333244,1.1254000000000135
648,21.643099999999777,-0.2326517571919968,-0.0502875399239795,0.1023003194622129,17.4079705172,78.4011888276,541.7605140000003,1.0028070000003506,1.0753499999994576
649,21.676466666666784,-0.2628044018466469,-0.1469080581974763,0.1174298899439269,17.4079709176,78.40118869413334,541.7918786666669,1.035172666666936,1.025299999999584
650,21.709833333333336,-0.2822151224707135,-0.6893858714828747,0.0484203052875132,17.407971308166665,78.40118861966667,541.8305200000002,1.0330233333329562,0.9988500000001336
651,21.743199999999888,-0.3136954206605016,-0.3820234291782197,-0.356506922257597,17.4079716752,78.4011886864,541.8865759999999,0.9482720000002218,1.0288799999999214
652,21.776566666666895,-0.3209442669520838,-0.0121192758370038,-0.4194675186369794,17.407972042233332,78.40118875313333,541.9426320000002,0.8635206666663325,1.0589100000001184
653,21.809933333332992,-0.2868583599573317,-0.0566986155463753,-0.0493716719917011,17.4079723298,78.4011887702,541.9804106666667,0.7815506666668003,1.0551666666668145
654,21.8433,-0.1436634717787589,-0.231331203404572,0.1833652822138593,17.4079724299,78.4011886701,541.975072,0.7061420000003238,0.9717500000003582
655,21.87666666666655,-0.0767483138138724,-0.1294994675088735,0.2270500532355835,17.407972530000002,78.40118857,541.9697333333334,0.6307333333338472,0.8883333333339017
656,21.91003333333356,-0.1352502662406815,-0.1270429534849839,-0.017905573305053,17.4079726903,78.40118848996667,541.9758326666669,0.5873310000001332,0.8089299999996992
657,21.94340000000011,-0.1257933972315463,-0.4416613418382972,0.0812353567586545,17.4079729906,78.4011884566,542.0085320000001,0.6183620000000549,0.7388599999998758
658,21.976766666666663,-0.1583741569057422,0.039886403989107,-0.1205679801275959,17.4079732909,78.40118842323334,542.0412313333333,0.6493929999999768,0.6687900000000525
659,22.010133333333215,-0.2265104721324666,0.4498544550999245,-0.2470287539924595,17.407973560800002,78.40118838986666,542.0704853333332,0.6502266666668904,0.6281066666665793
660,22.043500000000222,-0.2886048988252478,0.2348242811137896,-0.0953141639793189,17.407973761,78.4011883565,542.0918400000002,0.581824999999464,0.6548000000002092
661,22.076866666666774,-0.2716932907349831,-0.2371884984114513,-0.1458146964802221,17.4079739612,78.40118832313334,542.1131946666668,0.5134233333329699,0.6814933333334752
662,22.110233333333326,-0.2494426695075241,-0.15549875755643,0.2773801916941217,17.4079741307,78.40118824883334,542.1260556666667,0.4682513333333539,0.6805566666664895
663,22.14359999999988,-0.2841320553779067,0.3591480298227841,-0.4234291799772284,17.4079742308,78.401188082,542.119716,0.475592000000002,0.6171599999999827
664,22.176966666666885,-0.2492722754699839,-0.2776996805271365,-0.2414625488122896,17.4079743309,78.40118791516667,542.1133763333333,0.4829326666667502,0.5537633333326119
665,22.210333333332983,0.0006389776359958,-0.3776357827447174,0.5608093716720108,17.407974472333333,78.40118778966666,542.122226666667,0.4956466666668506,0.5120666666667164
666,22.24369999999999,-0.0076890308840972,0.4563365282232556,-0.2539936102234484,17.407974705900003,78.4011877563,542.164936,0.5203380000000094,0.5187400000000025
667,22.277066666666542,0.0118707845194318,-0.0394320198792318,-0.0649343272986168,17.40797493946667,78.40118772293333,542.2076453333331,0.5450293333331683,0.5254133333332888
668,22.310433333333094,0.3307774227924494,-0.4797870074754123,0.6817181398755912,17.407975162600003,78.40118768956665,542.2399213333333,0.5460369999999339,0.5362600000000259
669,22.3438000000001,0.4122257720962098,-0.0482641107296852,0.1301384451434165,17.407975362800002,78.4011876562,542.2492639999999,0.4949860000000626,0.5562799999999755
670,22.377166666666653,0.4756123535677994,-1.096698615551594,0.6719914803121371,17.407975563,78.40118762283333,542.2586066666667,0.4439350000001913,0.576299999999925
671,22.410533333333206,0.7514802981895711,-0.0675186368480783,1.0762371317007366,17.407975742133335,78.40118755786666,542.267844,0.4155306666665369,0.5752533333336262
672,22.443900000000212,0.6411288604900223,1.4596805111943203,-0.1384025559125887,17.407975875600002,78.40118742439999,542.2768530000001,0.4362180000001001,0.528539999999774
673,22.477266666666765,0.6687823926145499,-0.608974085903088,0.7637628682904389,17.407976009066665,78.40118729093334,542.2858620000001,0.4569053333333812,0.4818266666665584
674,22.510633333333317,0.7939652112194542,-0.0399999999862771,1.2227192048245636,17.407976174433333,78.40118721063332,542.3106083333333,0.477805333333329,0.4553166666666632
675,22.54399999999987,0.5746538871126725,0.9801916933156468,-0.2474973376086039,17.407976408,78.401187244,542.3689999999998,0.4991599999999418,0.4719999999999545
676,22.577366666666876,0.4478381256649663,-0.0717145899189812,0.2114376996514421,17.407976641566666,78.40118727736667,542.4273916666672,0.5205146666668456,0.4886833333334732
677,22.610733333332973,0.3596592119276639,-2.009201277960316,1.4762087326932438,17.407976918066666,78.40118727853334,542.4817046666669,0.544660000000176,0.5053666666667644
678,22.64409999999998,0.2982108626216911,0.5182321618629672,-0.4496911607885202,17.4079772851,78.4011872118,542.5274170000001,0.5746900000001003,0.5220500000000557
679,22.677466666666533,0.166389776359501,2.327284345054804,-0.9102023429126668,17.407977652133333,78.40118714506667,542.5731293333334,0.6047200000000246,0.538733333333347
680,22.710833333333085,0.0220092296778329,-1.4990060347402276,0.9076322328633066,17.407977997499998,78.40118707833334,542.6128833333337,0.6263000000000418,0.5597500000003138
681,22.74420000000009,-0.2718636847764725,-1.3323535676838054,0.5595314164299482,17.4079782978,78.4011870116,542.6402440000002,0.6303040000000135,0.5897800000001016
682,22.77756666666619,-0.4178203762886379,1.4008377706959618,-1.5165495207748008,17.407978598099998,78.40118694486667,542.6676046666666,0.6343079999999852,0.6198099999998893
683,22.810933333333196,-0.4316222932168393,1.9452041177949744,-0.6743769967713589,17.40797887653333,78.40118685626666,542.7003226666662,0.6398426666665863,0.6410933333333024
684,22.844300000000203,-0.4634504792317701,-2.7863471778200437,0.6717358892422028,17.407979110099998,78.40118672279999,542.7440330000001,0.648518000000016,0.6444300000000062
685,22.877666666666755,-0.4757543485977474,-0.4308129215329329,-0.2680156194650711,17.407979343666668,78.40118658933334,542.7877433333333,0.6571933333333274,0.6477666666666644
686,22.911033333333307,-0.5147248846290238,0.6369258075958573,-1.2855946041887707,17.407979643433332,78.4011864669,542.8265989999999,0.6802119999998333,0.6522066666666453
687,22.94439999999986,-0.323961661336952,-0.5292012779870641,-0.4844302449113392,17.4079800772,78.40118636679999,542.8556279999998,0.732263999999702,0.6588799999999618
688,22.977766666666867,-0.206822861192808,-2.128498402549956,0.6059708910076577,17.407980510966667,78.4011862667,542.8846570000002,0.7843160000002802,0.6655533333333693
689,23.01113333333342,0.162016329424912,0.3215193467850492,0.514050408243711,17.407980889066668,78.40118614433334,542.9035546666667,0.8206700000000142,0.6867000000001433
690,23.04449999999997,0.0728434504799305,2.109797657080094,-0.5811501597424814,17.407981156,78.40118597749999,542.9022199999999,0.8256750000000017,0.7367500000000171
691,23.077866666666523,-0.0928221512242731,0.290081647134715,-0.0079375221831693,17.407981422933332,78.40118581066666,542.9008853333333,0.8306799999999891,0.7867999999998908
692,23.111233333333075,-0.3086190983261905,-2.51281505145311,0.6627334043327585,17.407981723566667,78.40118567753333,542.9132553333337,0.8413016666668602,0.8222466666667262
693,23.144600000000082,-0.2766347177894027,0.2385090521154816,-0.6997657081713261,17.4079820906,78.4011856108,542.9526280000002,0.8629900000001389,0.8289200000000427
694,23.17796666666618,-0.1890450834224314,2.110394036199,-0.6381256655899261,17.407982457633334,78.40118554406666,542.9920006666669,0.8846783333334176,0.8355933333333592
695,23.211333333333187,-0.2364217252330302,-0.6581469649687788,0.776002839907319,17.407982802000003,78.40118540933334,543.0211733333333,0.9101066666666608,0.8467999999999963
696,23.244700000000194,-0.5303940362043624,-2.909968051156288,0.1335463259046296,17.4079831023,78.4011851424,543.0305160000001,0.9428060000002084,0.8668200000001277
697,23.278066666666746,-0.248860489882947,0.943471778485064,-0.7877884274036332,17.407983402600003,78.40118487546667,543.0398586666668,0.9755053333333108,0.8868399999999862
698,23.311433333333298,-0.0874334398288504,2.2425417110613344,-0.6311608093817955,17.40798369146667,78.4011846314,543.0530886666666,0.9956280000000248,0.9114333333331264
699,23.34479999999985,0.0618530351435529,-1.2162726304909393,0.8807667731641868,17.4079839584,78.4011844312,543.0737759999998,0.9916240000000348,0.944799999999709
700,23.378166666666857,0.0283280085155175,-1.453887114006279,0.8436634717936558,17.407984225333333,78.401184231,543.0944633333334,0.9876199999999904,0.9781666666667462
701,23.41153333333341,0.2166560170432469,1.684842030484293,-0.3369684060896524,17.4079845384,78.4011840308,543.1094993333332,0.9924966666666636,0.9988466666666672
702,23.44489999999996,0.2619169329050895,1.105090521745819,-0.0187007454452694,17.4079849388,78.4011838306,543.113837,1.0141849999999424,0.9955100000000088
703,23.478266666666514,0.2937451189202256,-2.5289598864041,0.9386155484560248,17.4079853392,78.4011836304,543.1181746666666,1.035873333333221,0.9921733333333506
704,23.511633333333066,0.4667873624384621,-0.4569329073818834,0.8176925807650226,17.4079856698,78.40118340693334,543.1329823333335,1.0497673333333295,0.9981433333334718
705,23.545000000000073,0.4023429179966497,1.9103301384357008,-0.3929712460121043,17.40798587,78.40118314,543.1673500000002,1.0490999999999977,1.0215000000000796
706,23.578366666666625,0.2907490237837439,0.2350585729417951,0.1211146609885752,17.4079860702,78.40118287306667,543.2017176666667,1.048432666666666,1.0448566666666874
707,23.611733333333177,0.3013702520402461,-1.293333333312575,0.7527724529612508,17.4079863056,78.40118260613333,543.2248213333334,1.0592639999999476,1.058826666666672
708,23.645100000000184,0.4787220447312859,0.4368051117602131,0.4301810436998592,17.4079866059,78.4011823392,543.227157,1.0912960000003034,1.0554899999999685
709,23.678466666666736,0.4720198793008975,2.035683351066422,-0.6680440184639824,17.4079869062,78.40118207226666,543.2294926666667,1.1233280000002226,1.0521533333333102
710,23.71183333333329,0.5136670216546941,-1.1398651046690964,1.3526801561748063,17.407987218333332,78.40118178166666,543.2330116666667,1.1637616666668236,1.061833333333427
711,23.74519999999984,0.3145899893476413,-2.011629392969526,1.171118210854286,17.407987552,78.401181448,543.238684,1.2194839999997629,1.095199999999858
712,23.778566666666848,0.184884629037888,0.6569613063514854,-1.3066311679081597,17.407987885666667,78.40118111433333,543.2443563333334,1.2752063333334618,1.1285666666667435
713,23.8119333333334,0.401306354276407,1.051913383034678,-0.2947106851379535,17.407988183533334,78.40118078066666,543.2477613333334,1.305630000000047,1.169093333333166
714,23.845299999999952,0.4600851970187281,0.3990841320486251,1.105452609170151,17.4079884171,78.401180447,543.2470940000001,1.2906150000000849,1.222479999999698
715,23.878666666666504,0.2485623003158275,-0.3881434149981425,0.2287539935854667,17.407988650666667,78.40118011333334,543.2464266666667,1.2756000000001229,1.2758666666662302
716,23.912033333333056,-0.0167909123166676,-0.9819169329230816,-0.3755200567860817,17.4079889444,78.4011797917,543.2505726666667,1.2758673333334136,1.3051866666666276
717,23.945400000000063,-0.035995740149056,-0.6730138445135164,-0.3729925452613304,17.4079893448,78.4011794914,543.263252,1.3032280000000112,1.2918399999999943
718,23.978766666666615,-0.0730067447645634,-0.4293503727427191,-0.3240255591076318,17.407989745200002,78.4011791911,543.2759313333333,1.330588666666609,1.2784933333333617
719,24.012133333333622,0.0613844515390702,0.2434930777229151,-0.1908129215628698,17.40799013346667,78.40117891506667,543.2889746666668,1.3397493333331294,1.2797066666669068
720,24.045500000000175,0.1297124600640333,-0.3367412140580503,0.3425985090544205,17.407990500500002,78.4011786815,543.3026550000001,1.3170599999998531,1.3064000000001728
721,24.078866666666727,0.0849130280443542,0.0504508342238578,-0.16316648916707,17.407990867533332,78.40117844793333,543.3163353333334,1.294370666666577,1.333093333333439
722,24.11223333333328,0.0464536741215277,-0.4460986865456861,-0.3658643947467882,17.407991161166667,78.4011781532,543.3248776666667,1.2746173333333124,1.3414366666666333
