frame,timestamp_s,gyro_x,gyro_y,gyro_z,gps_lat,gps_lon,gps_alt_m,speed_2d_mps,speed_3d_mps
0,0.0,0.2632587859440126,-0.3197018104461461,0.0230031948857187,17.432534714,78.370543466,557.51838,10.935279999999995,10.88799999999998
1,0.03333333333330302,-0.0623358182463323,1.1808306709155776,0.2564430244991115,17.432532480666666,78.37054603266667,557.5220466666667,10.940613333333324,10.921333333333274
2,0.06666666666660603,-0.1345402910963012,0.2804401846061306,0.2789492367730903,17.432530247333332,78.37054859933333,557.51634,10.9592666666666,10.932466666666656
3,0.10000000000002274,0.1171458998935037,-0.7720979765725392,0.2287539936111728,17.432528014,78.370551166,557.50734,10.982599999999984,10.935799999999997
4,0.13333333333332575,0.0631877884274049,0.8381256656017039,0.457933972310969,17.432525780666666,78.37055373266666,557.49834,11.005933333333292,10.939133333333327
5,0.16666666666662877,0.4969826056088037,-0.6574369897053604,-0.1402200922967695,17.432523572,78.37055627466667,557.4895866666667,10.998926666666703,10.957266666666618
6,0.20000000000004547,-0.0477103301374571,0.5169329073560301,-0.0553780617725841,17.432521372,78.370558808,557.48092,10.981259999999976,10.980600000000033
7,0.2333333333333485,-0.2346467873620548,1.1174298899524808,0.6613418530319475,17.432519172000003,78.37056134133334,557.4722533333334,10.963593333333309,11.003933333333364
8,0.2666666666666515,0.1990770323046781,-0.3843095491682685,-0.5285055023073079,17.432516972000002,78.37056394866667,557.46704,10.970100000000008,10.997666666666658
9,0.2999999999999545,0.0221512247076001,0.032800851968515,-0.2736954206590177,17.432514772,78.37056658200001,557.46304,10.98509999999999,10.98100000000001
10,0.33333333333337123,0.0061767838142664,0.3292154774535235,-0.3445509407126146,17.432512572,78.37056921533333,557.45904,11.000100000000025,10.964333333333306
11,0.36666666666667425,-0.0944266950664475,0.1990060347959207,0.4373446929339069,17.43251036369637,78.37057178052805,557.4506732673267,11.021584158415855,10.972211221122125
12,0.39999999999997726,0.1595314163987115,-0.7816826411031301,-0.1974440894640752,17.432508152475247,78.37057432178219,557.4407722772277,11.04534653465346,10.988712871287126
13,0.4333333333332803,0.0846290379816171,0.3241746538917049,-0.7693290734814983,17.432505941254124,78.3705768630363,557.4308712871288,11.069108910891064,11.005214521452126
14,0.466666666666697,-0.2195953141621591,0.974795882140396,0.5381611643602402,17.432503714333333,78.37057946966667,557.4282366666666,11.080733333333342,11.026566666666696
15,0.5,0.1235356762513312,0.7507987220447284,-0.5665601703940362,17.432501481,78.370582103,557.42857,11.0874,11.049900000000004
16,0.533333333333303,-0.0443734469293574,-0.7547035853745119,0.1249556265530706,17.432499247666666,78.37058473633334,557.4289033333333,11.09406666666666,11.07323333333331
17,0.566666666666606,-0.215974440894743,0.7774227901992191,0.3784877529298243,17.432497014333332,78.37058729866666,557.4219,11.088900000000022,11.084733333333318
18,0.6000000000000227,-0.3024494142707911,2.1720979765727666,1.794675186365494,17.432494781,78.370589832,557.4119,11.0789,11.0914
19,0.6333333333333258,-0.2953496627648059,-3.848917287921637,-1.1175718849915226,17.432492547666666,78.37059236533332,557.4019,11.068900000000012,11.09806666666666
20,0.6666666666666288,-0.0497692580747953,-0.1118920837730384,-0.1338303159362784,17.432490274410775,78.37059496464646,557.3896767676767,11.101619528619452,11.092828282828298
21,0.7000000000000455,-0.8093716719794941,4.71991480299591,1.7087326943775056,17.432487984848485,78.37059759090909,557.3765454545454,11.151787878787962,11.082727272727256
22,0.7333333333333485,0.2167554135570579,-2.995740149063545,-3.069151579698595,17.432485695286196,78.37060021717171,557.3634141414142,11.2019562289563,11.07262626262625
23,0.7666666666666515,0.1364572239900185,-0.1211217607369664,0.681079162254802,17.432483447333333,78.37060284866666,557.3442133333333,11.232760000000011,11.107000000000026
24,0.7999999999999545,0.378487752925393,-3.4549520766506028,-1.3418530351331155,17.432481214,78.370605482,557.32288,11.256759999999986,11.15699999999997
25,0.8333333333333712,-0.2411075612329014,0.7482428114980233,0.2339368122116936,17.432478980666666,78.37060811533333,557.3015466666667,11.28076000000004,11.207000000000084
26,0.8666666666666742,0.2367767128150514,0.2186723464678736,-1.131345402910898,17.432476805387207,78.37061071851852,557.2915151515152,11.22919528619526,11.237441077441083
27,0.8999999999999773,-0.1970181043663471,0.2087326943556975,3.789137380191693,17.43247465050505,78.37061331111111,557.2854545454546,11.15108080808089,11.261010101010076
28,0.9333333333332803,0.3801916932899357,-1.35434859779282,-0.6159034433840339,17.432472495622896,78.3706159037037,557.279393939394,11.072966329966516,11.284579124579068
29,0.966666666666697,-0.1827476038329068,1.566702165424336,-0.5336883209018477,17.43247025466667,78.370618502,557.2690166666667,11.099403333333322,11.23096666666668
30,1.0,0.0221512247090045,-0.4664536741253284,1.9015974440883043,17.432467988,78.370621102,557.2573500000001,11.157069999999925,11.154300000000102
31,1.033333333333303,0.0763223287210131,0.2423145189844934,-0.9772097976628064,17.432465721333333,78.370623702,557.2456833333334,11.214736666666523,11.077633333333525
32,1.066666666666606,-0.0205005324837467,-0.4291799786973553,0.1144834930803906,17.432463429,78.37062632766667,557.2412033333334,11.243399999999946,11.10363333333318
33,1.1000000000000227,0.0296059637906667,0.6928647497363357,-0.1752928647476125,17.432461129,78.37062896100001,557.23887,11.263400000000011,11.16030000000004
34,1.1333333333333258,0.525310614130985,-1.5792687256061884,-0.1417820376319568,17.432458829,78.37063159433333,557.2365366666667,11.283400000000016,11.216966666666703
35,1.1666666666666288,-0.1510827121135222,3.220731274395768,1.2188853389938792,17.43245658888889,78.37063427407408,557.2282222222223,11.281777777777782,11.245555555555548
36,1.2000000000000455,-0.0932907348263248,-3.1088391906362896,-0.4673056442988946,17.43245436666667,78.37063696767677,557.2181212121212,11.273696969696957,11.26575757575761
37,1.2333333333333485,-0.2250621228257011,0.6986155484558039,0.4842030528931487,17.432452144444447,78.37063966127945,557.2080202020202,11.265616161616158,11.2859595959596
38,1.2666666666666515,-0.1963081292154774,0.7852325168619099,-1.840965566205183,17.432449886666667,78.37064230666667,557.2006666666667,11.276799999999986,11.284666666666672
39,1.2999999999999545,-0.3995740149120158,-4.095846645376251,0.9367412140527474,17.43244762,78.37064493999999,557.1940000000001,11.292799999999966,11.278000000000011
40,1.3333333333333712,0.2816471423483517,1.3350372736902485,-2.0041178558762263,17.432445353333332,78.37064757333333,557.1873333333334,11.308800000000003,11.271333333333333
41,1.3666666666666742,-0.1993610223622994,-2.5515086971933414,1.1763578274878643,17.43244312222222,78.37065028181819,557.1760336700337,11.314962962962962,11.280774410774407
42,1.3999999999999773,0.0434504792289457,-1.605750798670885,-0.5488817891540301,17.4324409,78.3706530090909,557.1635757575758,11.318666666666664,11.29424242424242
43,1.4333333333332803,0.0778132765271997,1.923393681242238,-1.5681931132379563,17.43243867777778,78.37065573636363,557.1511178451178,11.322370370370368,11.30771043771043
44,1.466666666666697,-0.0797302094435605,2.701952431676931,1.932765353223408,17.432436446333334,78.37065841333333,557.1434666666667,11.322446666666666,11.315533333333343
45,1.5,0.5167731629381092,-0.936102236440764,-2.3093716719813555,17.432434213,78.37066107999999,557.1368,11.32178,11.322200000000004
46,1.533333333333303,-0.4025559105413875,2.8622648207364803,-0.5386581469744743,17.432431979666667,78.37066374666666,557.1301333333333,11.321113333333331,11.328866666666665
47,1.566666666666606,-0.3447639332687672,-3.537380191702647,3.0520411785413355,17.432429801666668,78.370666524,557.11157,11.35890333333326,11.32723333333334
48,1.6000000000000227,0.3823216187433439,-1.815761448349308,-3.178913738019169,17.432427635,78.370669324,557.09057,11.40457000000003,11.323899999999998
49,1.6333333333333258,-0.2999645012424565,0.9808306709265175,1.0518281860134897,17.43242546833333,78.37067212400001,557.06957,11.450236666666644,11.320566666666668
50,1.6666666666666288,0.2196663116802147,-1.3653532126408168,-0.2836350727735668,17.432423301666667,78.37067481333334,557.0615733333334,11.408200000000098,11.35873333333326
51,1.7000000000000455,0.1399361022325861,-0.7130990415504577,-0.1567625133120533,17.432421135,78.37067748,557.05624,11.34819999999996,11.40540000000003
52,1.7333333333333485,0.0443734469287116,0.4601348952810027,-0.2895278665265829,17.43241896833333,78.37068014666667,557.0509066666666,11.28820000000003,11.452066666666644
53,1.7666666666666515,0.1901313454061265,-2.756407525734139,0.7828186013511709,17.43241674633333,78.370682924,557.05,11.3294599999999,11.410200000000096
54,1.7999999999999545,0.0977635782723921,0.6917997870032995,0.5254526091578949,17.432414513,78.370685724,557.05,11.39145999999983,11.350200000000166
55,1.8333333333333712,0.1203407880770667,-0.3316293929736577,0.3253106141226746,17.432412279666668,78.370688524,557.05,11.45345999999997,11.290200000000029
56,1.8666666666666742,-0.1233226837057361,-0.4305999289991191,1.298970536026798,17.432410046333334,78.37069129633333,557.0403166666666,11.467596666666664,11.332566666666624
57,1.8999999999999773,-0.0935037273704186,0.9778487752914072,-0.2332268370590078,17.432407813,78.370694063,557.02865,11.471929999999997,11.395899999999957
58,1.9333333333332803,0.1931132410387026,-3.328363507273331,0.5347000355003819,17.432405579666668,78.37069682966667,557.0169833333333,11.47626333333333,11.459233333333293
59,1.966666666666697,0.1256656017039403,0.4376996805111821,-0.0674476393326233,17.43240348466667,78.370699624,557.0127866666667,11.437159999999915,11.472766666666674
60,2.0,0.0638977635782747,0.1533546325878594,0.8764643237486688,17.432401418,78.370702424,557.0101199999999,11.389159999999968,11.476100000000002
61,2.033333333333303,0.153709620164505,-0.2542421015327569,-0.0613418530360009,17.432399351333334,78.370705224,557.0074533333333,11.341160000000023,11.479433333333333
62,2.066666666666606,-0.0464323748681726,0.8380546680906946,-0.1019524316641313,17.432397219471948,78.37070811056105,557.0004257425742,11.388333333333238,11.441650165016569
63,2.1000000000000227,0.0643237486634355,-0.45282215120797,0.509691160803255,17.432395074257425,78.3707110148515,556.992504950495,11.455000000000071,11.395445544554406
64,2.1333333333333258,-0.0249201277956143,0.3848065317743905,0.0876109336136524,17.432392929042905,78.37071391914192,556.9845841584158,11.52166666666668,11.3492409240924
65,2.1666666666666288,0.3072772452917364,-1.2639687610846155,-0.3226837060705054,17.43239074,78.37071668666667,556.9789999999999,11.517933333333351,11.393333333333272
66,2.2000000000000455,0.0509052183177269,0.2758253461177774,-0.6871139510194342,17.432388539999998,78.37071942,556.9739999999999,11.49659999999997,11.46000000000009
67,2.2333333333333485,0.0266950656734182,-0.3091941782077825,0.3008164714231417,17.43238634,78.37072215333333,556.9689999999999,11.475266666666665,11.52666666666668
68,2.2666666666666515,0.0620518281858051,-0.4842740504069184,-0.3783457578990644,17.432384193333334,78.37072499333334,556.968,11.468333333333335,11.521333333333354
69,2.2999999999999545,0.0734824281150159,-0.3130990415335463,0.1054313099041533,17.43238206,78.37072786,556.968,11.465000000000009,11.498000000000047
70,2.3333333333333712,0.1558395456159033,0.7728079517216897,-0.1348952786652466,17.432379926666666,78.37073072666666,556.968,11.461666666666666,11.474666666666662
71,2.3666666666666742,0.3969648562300394,0.1081824636136549,-0.0684238551640325,17.432377846666665,78.37073362,556.9581333333333,11.462599999999998,11.467333333333338
72,2.3999999999999773,-0.0368477103311166,1.1959531416433842,-0.0176783812555034,17.432375779999997,78.37073652,556.9458000000001,11.464599999999995,11.464000000000008
73,2.4333333333332803,0.1200567980121325,-0.6063897763560986,-0.6692935747242115,17.43237371333333,78.37073941999999,556.9334666666667,11.466599999999994,11.46066666666668
74,2.466666666666697,-0.0299609513674576,0.1600993965345607,-0.0173233936831679,17.432371619999998,78.37074226666667,556.9248666666667,11.465933333333334,11.462666666666667
75,2.5,-0.1514376996816928,0.5870074547474333,0.1246006389731803,17.432369519999998,78.37074510000001,556.9172,11.4646,11.466
76,2.533333333333303,0.1948171814032857,-0.8571529996616913,-0.3334043308466187,17.43236742,78.37074793333333,556.9095333333333,11.463266666666666,11.469333333333331
77,2.566666666666606,-0.1272275470331223,0.4582179623582993,0.2293219737281588,17.432365231023102,78.37075071782179,556.9016633663366,11.4841221122112,11.47
78,2.6000000000000227,0.1167199148036695,-0.2594249201316795,0.0423855165084041,17.43236301980198,78.37075349009902,556.8937425742574,11.510524752475296,11.47
79,2.6333333333333258,0.1155839545594788,0.612637557688348,-0.0369897053573001,17.432360808580857,78.37075626237625,556.8858217821783,11.536927392739296,11.47
80,2.6666666666666288,0.1799787007454738,0.2357117500887468,-0.6844160454384096,17.432358708666666,78.37075910733334,556.87938,11.52862666666667,11.490533333333328
81,2.7000000000000455,0.1224707135250266,-0.0702875399361022,-0.0830670926517571,17.432356642000002,78.370761974,556.87338,11.50995999999996,11.517200000000056
82,2.7333333333333485,0.1108271210510199,0.1544195953122025,-0.4482073127437584,17.432354575333335,78.37076484066667,556.86738,11.491293333333315,11.543866666666691
83,2.7666666666666515,-0.082996095138278,-0.1723819666300975,0.1026624068179553,17.43235256,78.37076778433334,556.866,11.490336666666666,11.534600000000005
84,2.7999999999999545,-0.0058572949936914,-0.0399361022328652,0.2215122470725632,17.43235056,78.37077075100001,556.866,11.494669999999994,11.514600000000026
85,2.8333333333333712,0.1306354277551613,0.5253106141438187,0.3698260560870053,17.432348559999998,78.37077371766667,556.866,11.499003333333338,11.49459999999998
86,2.8666666666666742,0.1516506922262951,-0.7425630102956664,-0.7089811856564582,17.43234645733333,78.370776633,556.8672833333333,11.501283333333332,11.492566666666669
87,2.8999999999999773,0.005963791266492,-0.0939297124418739,0.2952076677331984,17.432344324,78.370779533,556.8689499999999,11.502949999999998,11.495899999999995
88,2.9333333333332803,0.0575789847374374,1.1131700390433887,-0.2749733759353728,17.432342190666667,78.370782433,556.8706166666666,11.504616666666664,11.499233333333326
89,2.966666666666697,-0.1916222932187541,-0.8981895633655874,0.4274760383368566,17.432340124422442,78.3707853108911,556.868204620462,11.512623762376238,11.502541254125411
90,3.0,-0.1718849840250409,0.6285410010721011,-0.3906283280077738,17.43233807821782,78.37078818217822,556.8645742574257,11.522524752475238,11.505841584158413
91,3.033333333333303,-0.3691870784522541,0.8214412495562655,-0.4064607738729144,17.4323360320132,78.37079105346535,556.8609438943895,11.53242574257424,11.509141914191414
92,3.066666666666606,0.1143059992908723,-1.7039403620941551,0.0141995030239807,17.432333946,78.37079387200001,556.8528466666667,11.504166666666787,11.51739999999997
93,3.1000000000000227,-0.0636847710326796,0.6123535676254963,-0.0560170394036547,17.432331846,78.37079667200001,556.8431800000001,11.462500000000023,11.527399999999991
94,3.1333333333333258,-0.1804046858365913,0.509762158326662,0.2905928292527874,17.432329746,78.370799472,556.8335133333334,11.420833333333409,11.537399999999982
95,3.1666666666666288,0.1150869719545673,-1.4627618033312364,1.1504437344653806,17.43232772,78.37080237066667,556.83026,11.405313333333346,11.50793333333342
96,3.2000000000000455,-0.0036208732685057,0.9887113951002416,0.2986155484614121,17.43232572,78.370805304,556.82926,11.398979999999993,11.46459999999994
97,3.2333333333333485,-0.1461661341785764,-0.411963081292755,0.1616968406039751,17.43232372,78.37080823733334,556.82826,11.39264666666666,11.421266666666607
98,3.2666666666666515,-0.0102236421759333,-1.2693645722448013,3.0994928845728964e-12,17.432321646,78.370811072,556.8223266666666,11.38631333333333,11.405066666666665
99,3.2999999999999545,0.0854100106471283,0.5024494142691494,-0.1141640042539377,17.432319546,78.370813872,556.81466,11.379980000000003,11.398400000000004
100,3.3333333333333712,0.2080227192027454,-1.3761448349325645,0.6378416755370071,17.432317446,78.370816672,556.8069933333333,11.373646666666655,11.391733333333322
101,3.3666666666666742,-0.0141995030176606,1.5373801916892085,-0.5641462548835393,17.432315361386138,78.37081950033004,556.8035346534652,11.396178217821804,11.38511551155115
102,3.3999999999999773,0.255591054313099,-0.3461128860489882,-0.3205537806176783,17.432313282178217,78.37082233861386,556.8015544554455,11.428851485148508,11.37851485148515
103,3.4333333333332803,0.019879304224352,0.3038693645722399,0.6996805111821086,17.432311202970297,78.37082517689768,556.7995742574258,11.461524752475212,11.37191419141915
104,3.466666666666697,-0.0159034433789102,0.0095846645349977,-1.1356052538148331,17.432309109000002,78.370827988,556.7978166666667,11.448043333333294,11.393666666666707
105,3.5,-0.1329073482437122,0.2785942492022077,0.0187433439860212,17.432307009,78.370830788,556.79615,11.415709999999995,11.427000000000003
106,3.533333333333303,0.013489527866573,-0.5356762513330922,-0.2968406105782326,17.432304909,78.37083358800001,556.7944833333333,11.3833766666667,11.4603333333333
107,3.566666666666606,0.1098331558391871,0.0952076677276484,-0.6877529286452018,17.432302903666667,78.370836459,556.79471,11.356960000000052,11.448700000000066
108,3.6000000000000227,-0.0949946751861456,-0.159531416401811,0.0176783812494982,17.432300937,78.370839359,556.79571,11.332959999999998,11.418699999999998
109,3.6333333333333258,-0.1355342563001673,-0.4074547390746013,0.011501597444845,17.432298970333335,78.370842259,556.7967100000001,11.308960000000024,11.388700000000032
110,3.6666666666666288,0.0645367412129533,-0.3140930067408509,-0.1473908413199144,17.432296861666668,78.37084504066667,556.7922666666667,11.313359999999966,11.361066666666725
111,3.7000000000000455,0.0707135250269291,0.172097976568384,0.076251331203708,17.432294695,78.370847774,556.7856,11.32936,11.3344
112,3.7333333333333485,0.0808661696827631,-0.1655662051807168,-0.1112531061383115,17.43229252833333,78.37085050733333,556.7789333333334,11.345359999999983,11.307733333333362
113,3.7666666666666515,-0.0536031238906637,-0.1480298189563365,0.0131345402910898,17.432290456333334,78.37085328799999,556.7651666666667,11.346450000000006,11.311833333333311
114,3.7999999999999545,-0.2587859424920127,1.523961661341853,-0.4142705005324814,17.432288423,78.370856088,556.7485,11.341450000000007,11.328499999999975
115,3.8333333333333712,0.5066382676612518,-2.209016684435766,-0.9025204117935104,17.432286389666665,78.370858888,556.7318333333333,11.33644999999999,11.3451666666667
116,3.8666666666666742,-0.2771742989005894,0.8111466098705191,-0.4412495562645379,17.43228428533333,78.37086166433333,556.7322066666667,11.312989999999962,11.347633333333327
117,3.8999999999999773,-0.7224707135327655,3.0541001065076823,0.1727369541975174,17.432282152,78.370864431,556.73954,11.281989999999997,11.3443
118,3.9333333333332803,0.551508697196344,-2.21228257010099,-0.2328008519795374,17.432280018666667,78.37086719766667,556.7468733333334,11.250990000000034,11.34096666666667
119,3.966666666666697,-0.2688675896350214,0.2214412495545317,-0.1765708200149356,17.43227788533333,78.37086994066667,556.7435566666667,11.242946666666668,11.316333333333292
120,4.0,-0.2481363152269329,1.6076677316068837,0.3465388711471522,17.432275752,78.370872674,556.73589,11.244280000000002,11.282999999999996
121,4.033333333333303,0.1540646077369615,-0.4075257366035534,0.341711040117974,17.432273618666667,78.37087540733333,556.7282233333333,11.245613333333331,11.249666666666702
122,4.066666666666606,0.0952786652476655,0.9484558040495316,-0.5253106141287573,17.43227148533333,78.37087816433333,556.7205566666667,11.258306666666629,11.24236666666666
123,4.100000000000023,0.3588924387646432,-1.5708200212992545,0.6677316293929713,17.432269352,78.370880931,556.71289,11.275640000000005,11.2457
124,4.133333333333326,-0.1938232161874334,1.1640042598509053,-0.514022009229677,17.432267218666667,78.37088369766667,556.7052233333333,11.292973333333316,11.24903333333333
125,4.166666666666629,-0.2708555200567979,-1.0418885339013135,1.4739084132055378,17.432265109,78.37088644066667,556.6999233333333,11.266286666666764,11.261833333333298
126,4.2000000000000455,-0.2658146964743487,-0.5237486688126511,0.2732694355972239,17.432263009,78.370889174,556.69559,11.221619999999996,11.278500000000005
127,4.2333333333333485,0.0902378416757495,1.1413560525367714,-0.6235711750090394,17.432260909,78.37089190733333,556.6912566666667,11.17695333333338,11.29516666666665
128,4.2666666666666515,-0.1246006389741489,-1.6293219737170783,1.93248136314828,17.43225878533333,78.37089466433333,556.6888166666668,11.174413333333312,11.269233333333393
129,4.2999999999999545,-0.1418530351432081,-0.8977635782807172,-2.102875399363502,17.432256652,78.370897431,556.68715,11.18907999999998,11.22590000000006
130,4.333333333333371,0.1955981540641234,1.6786652467120158,1.1274405395684264,17.432254518666667,78.37090019766667,556.6854833333333,11.203746666666698,11.182566666666578
131,4.366666666666674,0.7772097976603074,-1.5366702165483874,-0.6589989350383197,17.43225238533333,78.37090294066667,556.6833433333333,11.204923333333328,11.179466666666684
132,4.399999999999977,-0.0283280085190576,2.041320553778516,-0.6854100106507992,17.432250252,78.370905674,556.68101,11.20059,11.192800000000002
133,4.43333333333328,0.004046858363328,-1.708839190634779,0.2543840965751397,17.432248118666667,78.37090840733333,556.6786766666667,11.196256666666672,11.20613333333332
134,4.466666666666697,-0.1622293219737309,0.367057152999645,0.3205537806176783,17.432246127333332,78.37091116433334,556.6810766666666,11.151689999999924,11.20763333333333
135,4.5,-0.356762513312034,1.4323748668796592,1.3578274760383386,17.432244194,78.370913931,556.68541,11.090689999999991,11.2043
136,4.533333333333303,0.5867944621926731,-2.799964501239072,0.309194178200383,17.432242260666666,78.37091669766667,556.6897433333334,11.029690000000064,11.20096666666667
137,4.566666666666606,-0.0679446219398593,0.1525026624078037,-0.3490947816845589,17.432240327333332,78.37091951166667,556.6865033333333,11.026436666666624,11.157400000000129
138,4.600000000000023,-0.3152289669855501,2.1056443024529448,0.4462193823199963,17.432238394,78.370922345,556.68017,11.046770000000002,11.097399999999991
139,4.633333333333326,0.3288604898815755,-2.3155839545563115,0.3302804401834118,17.432236460666665,78.37092517833334,556.6738366666667,11.067103333333312,11.037400000000062
140,4.666666666666629,-0.1190628328004451,0.3919772808030562,-0.5401490947772949,17.432234479999998,78.37092798799999,556.6743666666666,11.063296666666696,11.034199999999956
141,4.7000000000000455,-0.1727369542102058,1.2038338658150258,0.6500532481380006,17.43223248,78.370930788,556.6777000000001,11.04963,11.054200000000002
142,4.7333333333333485,0.0991125310595628,1.2093716719921197,-0.922825701097575,17.432230479999998,78.370933588,556.6810333333334,11.035963333333347,11.07419999999998
143,4.7666666666666515,0.0716364927234907,-2.7902023429171265,-0.2624778132778961,17.432228494059405,78.37093634488448,556.6749702970297,11.044184818481812,11.06828382838287
144,4.7999999999999545,-0.023855165070133,0.6952076677339346,1.0487752928582408,17.432226513861387,78.37093908415841,556.6650693069307,11.061346534653415,11.05178217821787
145,4.833333333333371,-0.0127795527156549,0.0447284345047923,0.5154419595314164,17.432224533663366,78.37094182343235,556.6551683168317,11.078508250825076,11.03528052805281
146,4.866666666666674,0.0891018814341497,-0.7816826411075612,0.9982250621228256,17.432222562666666,78.370944604,556.6506400000001,11.080373333333336,11.043599999999984
147,4.899999999999977,0.1755058572980021,0.8417465388711298,-0.984664536742168,17.432220596,78.370947404,556.64864,11.075040000000005,11.063599999999989
148,4.93333333333328,0.0555910543137964,-1.3412140575086555,-0.2384806531738311,17.43221862933333,78.370950204,556.6466399999999,11.06970666666667,11.083599999999986
149,4.966666666666697,-0.0653177138796711,0.0269790557284385,0.2942847000363664,17.43221664,78.370952936,556.6471333333333,11.037173333333245,11.085466666666653
150,5.0,-0.2734824281179022,1.5037273695446811,0.3933972310945773,17.432214639999998,78.370955636,556.6487999999999,10.991839999999964,11.078799999999994
151,5.033333333333303,0.4280440184632862,-1.9259495917693057,0.0463613773566549,17.43221264,78.370958336,556.6504666666666,10.946506666666682,11.072133333333335
152,5.066666666666606,0.0298899538496683,0.4526801561908428,0.1050053248148518,17.432210662666666,78.37096105866667,556.6405733333334,10.938799999999986,11.038266666666734
153,5.100000000000023,-0.05090521831763,-0.1799787007469752,0.1529286474941993,17.432208696,78.370963792,556.62524,10.948800000000007,10.99159999999996
154,5.133333333333326,-0.1077032303866991,1.2735534256276524,0.427405040823668,17.43220672933333,78.37096652533333,556.6099066666667,10.958799999999997,10.944933333333347
155,5.166666666666629,0.2200922967651575,-1.2616258430834817,-0.0995385161537556,17.432204671999997,78.37096919066667,556.60024,10.96132,10.936799999999986
156,5.2000000000000455,-0.0468583599574014,0.4355697550585729,-0.0234291799787007,17.432202571999998,78.370971824,556.5932399999999,10.96032,10.946800000000009
157,5.2333333333333485,-0.1874334398296059,0.9009584664536742,0.888888888888889,17.432200471999998,78.37097445733333,556.58624,10.95932,10.956799999999998
158,5.2666666666666515,0.1155839545624571,-0.8670926517597746,0.1219737309174516,17.432198485333334,78.37097715866666,556.5851333333333,10.935880000000047,10.96
159,5.2999999999999545,-0.0010649627259172,-0.0449414270472879,-0.5987220447289382,17.432196552,78.370979892,556.5868,10.901880000000087,10.96
160,5.333333333333371,0.0486332978351569,0.5962371316994898,0.3084132055403341,17.432194618666667,78.37098262533333,556.5884666666667,10.86788000000001,10.96
161,5.366666666666674,-0.205182818601591,0.9947461838888332,0.0558750443756068,17.43219261733333,78.37098533599999,556.5962533333334,10.84362666666668,10.937333333333356
162,5.399999999999977,0.2506922257748972,-0.9650692225731612,0.2195953141608272,17.432190584,78.370988036,556.6069200000001,10.823960000000014,10.904000000000025
163,5.43333333333328,-0.1433439829633422,-0.5153709620259764,-0.5689740859026201,17.432188550666666,78.370990736,556.6175866666666,10.804293333333346,10.87066666666669
164,5.466666666666697,0.3058572949949367,2.158324458652277,0.204472843448881,17.432186562666665,78.37099345866666,556.61964,10.797546666666666,10.84639999999996
165,5.5,0.5220447284369456,-0.7529286474970954,-0.9361022364255752,17.432184596,78.370996192,556.61764,10.79688,10.826399999999984
166,5.533333333333303,-0.1626553070647272,0.4443734469300451,1.5982250621220655,17.432182629333333,78.37099892533334,556.61564,10.796213333333332,10.806400000000009
167,5.566666666666606,0.0958466453674847,-0.3560525381716734,0.1356052538026531,17.432180662666667,78.37100159066668,556.60888,10.781946666666697,10.8
168,5.600000000000023,-0.121405750798722,0.952076677316294,0.6687965921192758,17.432178696,78.371004224,556.59988,10.761279999999983,10.8
169,5.633333333333326,0.1410720624797551,-0.5059282925133605,-0.613205537806787,17.43217672933333,78.37100685733334,556.59088,10.74061333333334,10.8
170,5.666666666666629,0.0341498047566058,0.0193823216179878,0.0051828186027485,17.432174785333334,78.37100955866667,556.5882266666666,10.749639999999967,10.786400000000029
171,5.7000000000000455,-0.0773162939277365,0.6877529286466547,-0.0907348242782153,17.432172852,78.371012292,556.58856,10.77264000000002,10.766399999999985
172,5.7333333333333485,-0.2806531771313484,1.0206602768653967,1.3116080937139305,17.432170918666667,78.37101502533334,556.5888933333334,10.795639999999992,10.746400000000008
173,5.7666666666666515,-0.0869719559785037,0.1528221511938792,-1.2264820731407182,17.43216894,78.37101769066668,556.5856,10.79302666666669,10.753599999999972
174,5.7999999999999545,-0.4474973375952618,1.9399361022475217,-0.1088391906356359,17.43216694,78.371020324,556.5806,10.778360000000038,10.773599999999949
175,5.833333333333371,0.370891018812753,-0.6929357472576603,-0.7268725594454738,17.43216494,78.37102295733334,556.5756,10.763693333333338,10.793599999999994
176,5.866666666666674,-0.1909833155838576,2.0606318778813293,0.737309194179923,17.432163030666665,78.37102561333333,556.56448,10.732480000000027,10.790933333333342
177,5.899999999999977,0.1646432374862375,-0.8756123535684921,-0.6724174653853117,17.432161164,78.37102828,556.55048,10.693480000000026,10.777600000000009
178,5.93333333333328,-0.0177493787717429,0.6045438409655662,-0.3830315938942137,17.43215929733333,78.37103094666666,556.53648,10.654480000000026,10.764266666666677
179,5.966666666666697,-0.0039048633297834,-0.0756123535676251,0.4611288604898828,17.432157430666667,78.37103368133333,556.5297333333334,10.659453333333383,10.73279999999992
180,6.0,0.1305644302456532,-0.027476038342174,-0.6796592119270449,17.432155564,78.371036448,556.5264000000001,10.68512000000002,10.692799999999968
181,6.033333333333303,-0.1610223642158431,1.1706780262659666,0.2354987575421832,17.432153697333334,78.37103921466667,556.5230666666668,10.710786666666658,10.652800000000012
182,6.066666666666606,0.1265885693989764,-0.9476748313815506,-0.1641462548814471,17.432151853333334,78.37104195866667,556.51792,10.713786666666678,10.658133333333296
183,6.100000000000023,-0.2905218317352645,0.0055378061813312,-0.1787007454749544,17.43215002,78.371044692,556.51192,10.706119999999991,10.684800000000022
184,6.133333333333326,-0.1670571530010203,2.598154064607981,-0.8112176073802451,17.432148186666666,78.37104742533333,556.5059200000001,10.698453333333337,10.71146666666666
185,6.166666666666629,0.6385516506888695,-1.1509407170693962,-1.1243876464336389,17.432146308,78.37105015866666,556.50944,10.678546666666705,10.715466666666677
186,6.2000000000000455,0.1030351437708533,-0.3016506922333315,-0.7484025559120641,17.432144408,78.371052892,556.5174400000001,10.652879999999978,10.708799999999997
187,6.2333333333333485,-0.0937877174292991,0.8922967696125744,-0.1556975505874438,17.432142508000002,78.37105562533333,556.52544,10.62721333333334,10.702133333333334
188,6.2666666666666515,-0.0076322328710373,-1.1340078097238395,0.2419240326565918,17.432140630666666,78.37105833599999,556.5212,10.625346666666651,10.681866666666703
189,6.2999999999999545,-0.141640042598509,0.8945686900958466,0.0532481363152289,17.432138764,78.371061036,556.5112,10.634679999999976,10.655200000000068
190,6.333333333333371,0.1281505147319843,-0.6677316293929713,-0.5385161519346822,17.432136897333333,78.371063736,556.5012,10.64401333333333,10.62853333333334
191,6.366666666666674,-0.1843805466823723,-0.2744763933219137,1.2298899538517798,17.432135030666664,78.37106643599999,556.4973200000001,10.64314666666667,10.626799999999992
192,6.399999999999977,0.0638977635781536,0.9199148029838377,-0.5693290734835275,17.432133164,78.371069136,556.49632,10.637480000000004,10.636799999999994
193,6.43333333333328,-0.1094071707492077,-0.1994320198772314,1.349875754356366,17.43213129733333,78.371071836,556.49532,10.631813333333335,10.646799999999994
194,6.466666666666697,0.0927227547028734,-0.5194888178926378,-0.4471423500098021,17.432129407999998,78.37107451333333,556.4877466666667,10.627279999999994,10.645466666666652
195,6.5,-0.0076677316277657,-0.1608093716691825,-0.3352502662472001,17.432127507999997,78.37107718,556.47708,10.623279999999998,10.638799999999994
196,6.533333333333303,-0.217252396163301,0.3309904153321507,1.3758608448680905,17.432125608,78.37107984666666,556.4664133333333,10.619280000000002,10.632133333333336
197,6.566666666666606,0.0417465388692216,0.4930777422874468,-0.962513312040646,17.432123720792077,78.37108247293729,556.4625511551155,10.586580858085869,10.627755775577562
198,6.600000000000023,-0.0709265175719672,-0.6325878594270995,0.2242811501578895,17.43212183960396,78.37108508019801,556.4618910891089,10.540376237623706,10.62445544554455
199,6.633333333333326,-0.0743698970533256,0.2416577919755075,-0.0387823926162558,17.432119958415843,78.37108768745874,556.4612310231023,10.4941716171617,10.621155115511549
200,6.666666666666629,0.1317003904863329,-0.6290379836705715,0.2981895633652822,17.43211813,78.37109031166666,556.4516833333333,10.468466666666677,10.5896666666667
201,6.7000000000000455,0.1767838125665601,0.2044728434504792,-0.027689030883919,17.43211633,78.37109294499999,556.43735,10.453799999999976,10.542999999999928
202,6.7333333333333485,0.0824991125298797,0.0565850195258469,-0.0596379126720393,17.43211453,78.37109557833332,556.4230166666666,10.439133333333327,10.496333333333316
203,6.7666666666666515,-0.0911608093696961,-1.188498402562376,0.5627263045798627,17.432112696296297,78.37109825084174,556.4153737373738,10.436845117845111,10.471245791245805
204,6.7999999999999545,0.2083067092669772,0.9216187433359824,-0.2066027689029431,17.432110844444445,78.37110094444444,556.4113333333333,10.441222222222212,10.457777777777808
205,6.833333333333371,-0.04217252395569,-0.045509407179408,-0.6685835995709203,17.432108992592593,78.37110363804715,556.4072929292929,10.445599326599323,10.444309764309768
206,6.866666666666674,-0.1226837060692414,0.6078807241839812,0.3667731629357521,17.432107130666665,78.37110622266667,556.3948933333332,10.422973333333356,10.442266666666663
207,6.899999999999977,-0.1101171458993994,0.8404685835965666,-0.4436634717762939,17.432105264,78.371108756,556.37856,10.387640000000024,10.445599999999995
208,6.93333333333328,0.0364927227528245,-0.9176428824902017,0.3681221157228501,17.432103397333332,78.37111128933334,556.3622266666666,10.35230666666669,10.448933333333333
209,6.966666666666697,-0.0714235001771692,0.4938587149424973,-0.103940362085133,17.432101576,78.37111386800001,556.3590399999999,10.307679999999904,10.425066666666597
210,7.0,0.2502662406815761,-0.9818956336528222,0.1970181043663471,17.432099776,78.371116468,556.36204,10.25867999999996,10.388399999999969
211,7.033333333333303,-0.0418885339013134,0.1867234646787361,0.1789137380191693,17.432097976,78.371119068,556.36504,10.209680000000017,10.351733333333344
212,7.066666666666606,0.0116258430917182,0.424298899548666,0.0625665601702123,17.432096176,78.371121668,556.3607866666666,10.195133333333333,10.308266666666734
213,7.100000000000023,0.0460063897775636,-0.3030883919122497,0.1495207667735406,17.432094376000002,78.371124268,556.35312,10.1968,10.26159999999996
214,7.133333333333326,-0.1157259495919337,0.6998935037285028,0.2862619808288839,17.432092576000002,78.371126868,556.3454533333334,10.198466666666668,10.214933333333349
215,7.166666666666629,-0.4577919772765043,0.0213702520252359,-1.2429534966310372,17.432090821333333,78.37112944533334,556.3468533333333,10.160240000000083,10.2
216,7.2000000000000455,-0.113312034094658,2.7480298189922365,-0.7669861554815506,17.432089088,78.371132012,556.35252,10.103239999999952,10.2
217,7.2333333333333485,0.6364217252356067,0.2031948881712426,-2.6231451899174134,17.432087354666667,78.37113457866667,556.3581866666667,10.04624000000002,10.2
218,7.2666666666666515,-0.0867589634371449,1.2531061412650375,1.4308129215495926,17.432085553333334,78.37113712266667,556.3516133333334,10.053839999999944,10.16146666666675
219,7.2999999999999545,0.0112886049155462,1.8979765708471608,-1.6080937167175902,17.43208372,78.371139656,556.33928,10.091839999999902,10.104800000000148
220,7.333333333333371,0.0427405040805216,-3.057152999644044,1.7656372026967528,17.432081886666666,78.37114218933334,556.3269466666667,10.129839999999987,10.04813333333335
221,7.366666666666674,-0.009939652112176,0.1718139865104722,0.7614483493077742,17.432080121333332,78.37114458666667,556.3239066666666,10.025266666666784,10.054933333333308
222,7.399999999999977,0.0617678381256656,-0.2012779552715655,1.308839190628328,17.432078388,78.37114692,556.32524,9.853600000000116,10.091599999999977
223,7.43333333333328,0.0266950656712146,-0.937309194190776,0.8347887823886161,17.432076654666666,78.37114925333333,556.3265733333333,9.68193333333345,10.128266666666642
224,7.466666666666697,0.1315583954567353,-0.0005679801176399,-0.5644302449405554,17.432074898666666,78.37115165466666,556.3265466666667,9.639013333333368,10.024399999999668
225,7.5,0.1541533546327164,-3.950745473906998,0.0676251331200834,17.432073132,78.371154088,556.32588,9.656680000000014,9.85439999999986
226,7.533333333333303,0.0634717784859222,1.4519701810456394,-0.0268370607013933,17.432071365333336,78.37115652133333,556.3252133333334,9.67434666666666,9.684400000000055
227,7.566666666666606,0.2652467163617696,-6.005608803655123,1.194888178919259,17.432069508,78.37115904533333,556.32704,9.764999999999818,9.641333333333309
228,7.600000000000023,-0.0257720979757668,4.586794462195422,0.5806176783836974,17.432067608,78.371161612,556.3300399999999,9.890000000000102,9.658000000000014
229,7.633333333333326,0.1583244586370705,-5.729783457552697,1.036634717765351,17.432065708,78.37116417866667,556.33304,10.01499999999996,9.674666666666662
230,7.666666666666629,0.1003904863402039,-2.8418885339207045,2.256585019528249,17.432063944,78.37116658666667,556.33332,9.94869333333356,9.76613333333315
231,7.7000000000000455,-0.0581469648555374,-1.652183173593539,-0.6692225772098606,17.432062244,78.37116892,556.33232,9.792359999999872,9.892800000000104
232,7.7333333333333485,0.3911963081292154,1.881789137380192,-0.9343272985445508,17.432060544,78.37117125333333,556.33132,9.636026666666716,10.019466666666627
233,7.7666666666666515,0.2971246006389776,-2.716719914802982,1.3248136315228969,17.432059025333334,78.37117379066667,556.3278266666667,9.583733333333338,9.953466666666897
234,7.7999999999999545,0.0362087326956632,0.4883919062850332,0.4777422790207525,17.432057592,78.371176424,556.32316,9.58040000000001,9.796800000000406
235,7.833333333333371,0.0839900603487788,0.0709975150633388,0.8937877173900428,17.432056158666665,78.37117905733334,556.3184933333333,9.577066666666669,9.640133333333385
236,7.866666666666674,-0.0647497337535359,-1.4832090876904935,1.5428470003404493,17.432054589333333,78.3711816,556.30748,9.59503999999998,9.587733333333336
237,7.899999999999977,-0.0368477103329085,-0.293077742274681,-0.2302449414219843,17.432052956,78.3711841,556.29348,9.623039999999982,9.584400000000002
238,7.93333333333328,0.1882144125027689,0.1861554845569072,0.7745828895918176,17.432051322666666,78.3711866,556.27948,9.65103999999998,9.581066666666668
239,7.966666666666697,0.2947816826441876,0.1342563010266937,-0.913170039052343,17.43204962133333,78.37118900933334,556.2727333333333,9.630986666666583,9.598133333333385
240,8.0,0.141853035144322,0.5550585729493366,1.1224707135260437,17.432047888,78.371191376,556.2694,9.588319999999966,9.624800000000022
241,8.033333333333303,0.3225417110390433,0.0457933972334215,-0.5280795172167715,17.432046154666665,78.37119374266666,556.2660666666667,9.545653333333346,9.65146666666666
242,8.066666666666606,0.1031593894260387,0.2336528221436116,0.3255236066780281,17.432044455218854,78.37119612558922,556.2732424242424,9.485521885521996,9.63023569023576
243,8.100000000000023,0.0915867944621938,-0.2736954206602769,0.288604898828541,17.43204277171717,78.37119851616163,556.2853636363636,9.417171717171689,9.586464646464629
244,8.133333333333326,0.0983315583954561,-0.177138800141995,0.1714589989350372,17.432041088215488,78.37120090673402,556.2974848484848,9.348821548821617,9.542693602693644
245,8.166666666666629,0.0663826766061976,0.2631167909138339,-0.1383741569043,17.432039487666668,78.371203304,556.2905866666667,9.332786666666657,9.48266666666681
246,8.200000000000045,0.2332268370573127,-0.7041533546284424,0.0775292864758256,17.432037921,78.371205704,556.27592,9.338120000000002,9.415999999999991
247,8.233333333333348,0.1419950301730398,0.4286119985764595,-0.2190983315546631,17.43203635433333,78.371208104,556.2612533333333,9.34345333333333,9.3493333333334
248,8.266666666666652,0.1716009939649981,0.2498402555883519,-0.46510472133547,17.432034787666666,78.37121045666667,556.2562899999999,9.303346666666748,9.334733333333324
249,8.299999999999955,0.0998935037242749,0.0660276890349519,-0.0749733759360702,17.432033221,78.37121279,556.25529,9.24468000000008,9.341399999999991
250,8.333333333333371,0.1955981540642687,-0.0962016329443482,-0.7075612353581572,17.432031654333333,78.37121512333333,556.25429,9.186013333333214,9.34806666666668
251,8.366666666666674,0.0063897763579727,-0.0866879659222242,0.3765708200207035,17.432030040333334,78.37121745666667,556.2587333333333,9.161189999999989,9.307399999999925
252,8.399999999999977,0.1154419595317457,-0.2457933972319007,-0.5490947816831109,17.432028407,78.37121979,556.2654,9.150189999999998,9.247399999999994
253,8.43333333333328,-0.2164004259837538,0.5853745118968298,0.4803691870755852,17.432026773666667,78.37122212333333,556.2720666666667,9.13919000000001,9.187400000000062
254,8.466666666666697,0.1306354277600283,-0.2105076322328719,-0.4529641462548811,17.432025093,78.371224362,556.2614566666666,9.12605999999998,9.162899999999988
255,8.5,-0.0319488817891373,1.0372736954206605,-0.1384451544195953,17.432023393,78.371226562,556.24379,9.112059999999998,9.1529
256,8.533333333333303,-0.3404330848413283,0.855307064251739,0.3680511182101943,17.432021693,78.371228762,556.2261233333334,9.098060000000014,9.142900000000012
257,8.566666666666606,0.1914093006752415,-1.4090876819324931,-0.3050763223286507,17.432019969333336,78.37123093833334,556.2207633333334,9.075066666666723,9.130533333333362
258,8.600000000000023,-0.1548455804015039,0.0920127795556358,-0.0487752928667401,17.432018236,78.371233105,556.22043,9.048399999999996,9.1172
259,8.633333333333326,-0.4748313809009614,1.4672346467900166,0.1571175008878273,17.432016502666666,78.37123527166666,556.2200966666667,9.02173333333336,9.10386666666668
260,8.666666666666629,0.4316648917264649,-1.9202697905588848,0.172736954201416,17.432014887666668,78.371237462,556.2124266666667,8.980393333333435,9.081066666666723
261,8.700000000000045,-0.0485623003189173,0.2568690095809064,-0.3884984025572956,17.432013321,78.371239662,556.20176,8.933059999999994,9.054399999999998
262,8.733333333333348,-0.1559815406457189,0.3562655307058393,0.3534966276162269,17.43201175433333,78.37124186199999,556.1910933333334,8.885726666666715,9.02773333333336
263,8.766666666666652,-0.0518281860130052,-0.3105431309900375,0.1304224352151839,17.432010282333334,78.37124415666666,556.1856333333333,8.859930000000023,8.984500000000068
264,8.799999999999955,-0.1778487752928647,0.3418530351437699,0.3375931842385516,17.432008849,78.37124649,556.1822999999999,8.842930000000022,8.934500000000067
265,8.833333333333371,-0.0592829250976215,-0.199858004969826,0.2751153709620163,17.432007415666664,78.37124882333333,556.1789666666666,8.825929999999964,8.884499999999896
266,8.866666666666674,0.1075612353567624,-0.3833865814696485,-0.1068512602058927,17.432005864,78.371250991,556.17232,8.783133333333266,8.858166666666646
267,8.899999999999977,-0.0095846645369348,0.8325878594254092,-0.0159744408950529,17.432004264,78.371253091,556.16432,8.729799999999994,8.841499999999998
268,8.93333333333328,0.0461483848051273,0.4516151934699381,-0.221441249555355,17.432002664,78.371255191,556.15632,8.676466666666721,8.82483333333335
269,8.966666666666697,0.041959531414962,-1.0516151934597584,0.5377351792744499,17.432001158666665,78.37125740933334,556.1584966666667,8.654846666666655,8.782133333333267
270,9.0,-0.0095846645362569,0.20830670926504,-1.1267305644301964,17.431999692,78.371259676,556.16483,8.64618,8.728799999999994
271,9.033333333333303,-0.0305289314911753,-0.8626908058152001,-0.064678736237926,17.431998225333334,78.37126194266666,556.1711633333333,8.637513333333342,8.675466666666722
272,9.066666666666606,-0.3092651757156681,1.6542421015273907,0.359957401490294,17.43199668766667,78.37126404366666,556.16732,8.60470666666676,8.655266666666682
273,9.100000000000023,0.433652822150905,-2.0954206602795398,-0.1456869009588829,17.431995121,78.371266077,556.15932,8.562039999999996,8.6486
274,9.133333333333326,-0.1254526091581999,0.8190273340411196,0.1899893503734052,17.43199355433333,78.37126811033333,556.15132,8.519373333333377,8.641933333333341
275,9.166666666666629,-0.3024494142705005,0.1579694710685125,1.2999645012424563,17.43199201133333,78.37127021466667,556.1473433333333,8.501320000000018,8.609233333333428
276,9.200000000000045,0.0575079872204472,-2.2651757188498403,0.549520766773163,17.431990478,78.371272348,556.1450100000001,8.493319999999999,8.565899999999996
277,9.233333333333348,0.2133475328353014,0.251153709619462,-0.0473908413206294,17.431988944666667,78.37127448133334,556.1426766666667,8.485320000000009,8.52256666666671
278,9.266666666666652,0.0763223287177442,0.8141995030178254,-0.5790557330481471,17.431987458666665,78.37127663833334,556.1393966666667,8.469510000000026,8.502900000000013
279,9.299999999999955,0.0485623003193773,-2.2860489882931923,1.0080937167232176,17.431985992,78.371278805,556.13573,8.450510000000026,8.492900000000013
280,9.333333333333371,0.0112886049000488,-0.3856585019398207,-0.1025914092994394,17.431984525333334,78.37128097166666,556.1320633333333,8.431509999999962,8.48289999999998
281,9.366666666666674,-0.2126375576851419,0.1561235357068193,1.6501242456538527,17.431982964,78.37128302,556.13597,8.39286666666661,8.468166666666646
282,9.399999999999977,0.1552715655030096,-1.4300319488963469,0.1446219382279776,17.431981364,78.37128502,556.14297,8.346199999999994,8.451499999999998
283,9.43333333333328,0.101455449060358,0.4433084842034742,0.7485268015620615,17.431979763999998,78.37128702,556.14997,8.29953333333338,8.43483333333335
284,9.466666666666697,-0.1148739794096987,-0.0038338658140281,-0.3505857294998742,17.431978258666664,78.37128906733334,556.1451366666666,8.278189999999986,8.39686666666661
285,9.5,0.1024494142700113,-2.2178913738040573,0.6647497337610329,17.431976792,78.371291134,556.13547,8.26719,8.350199999999994
286,9.533333333333303,0.0106496272630458,1.073127440539581,-1.1331203407880726,17.431975325333333,78.37129320066667,556.1258033333334,8.25619000000001,8.30353333333338
287,9.566666666666606,0.0493432729826608,-1.0528931487388742,0.7263045793541791,17.431973882333335,78.371295291,556.1265500000001,8.23028000000007,8.280533333333361
288,9.600000000000023,-0.1706070287540856,0.9050053248159368,0.1037273695401917,17.431972449,78.371297391,556.1315500000001,8.198279999999997,8.267199999999999
289,9.633333333333326,0.061838835641663,-1.167696130638895,-0.4266240681557112,17.431971015666665,78.371299491,556.13655,8.166280000000032,8.25386666666668
290,9.666666666666629,-0.0991125310616211,0.1331913383057648,0.1720979765700063,17.431969568976896,78.37130152937294,556.138702970297,8.14247194719476,8.228910891089168
291,9.700000000000045,0.1145899893470892,-0.4051118210850415,-0.0719914802919277,17.431968116831683,78.37130354257427,556.1396930693069,8.12200990099009,8.199207920792064
292,9.733333333333348,0.1263755768539706,-0.3707490237880677,-0.4425985090565612,17.43196666468647,78.37130555577558,556.1406831683169,8.101547854785487,8.169504950495062
293,9.766666666666652,-0.1035143769972312,0.1118210862650802,0.7590344337947654,17.431965225333336,78.37130756,556.1387333333333,8.08366666666669,8.146400000000028
294,9.799999999999955,-0.0127795527095528,0.0822151224770044,-0.1186368477199336,17.431963792,78.37130956,556.1354,8.067000000000043,8.126400000000052
295,9.833333333333371,0.0247071352503824,0.5669861554860981,-0.4137025204121536,17.431962358666667,78.37131156000001,556.1320666666667,8.050333333333338,8.106400000000006
296,9.866666666666674,-0.3825346112884306,1.0759673411426,0.6942137025210607,17.431960948,78.37131351466667,556.1294133333333,8.015760000000029,8.088666666666677
297,9.899999999999977,0.2705005324813631,-1.740149094781683,-0.362087326943557,17.431959548000002,78.371315448,556.12708,7.972760000000029,8.072000000000012
298,9.93333333333328,-0.035143769968051,0.321618743343983,0.3858714944976926,17.431958148000003,78.37131738133334,556.1247466666667,7.929760000000029,8.055333333333346
299,9.966666666666697,-0.1346822861210802,0.4842030528949406,0.1811146609878001,17.431956748,78.37131940533334,556.1249066666667,7.9257466666666945,8.02053333333325
300,10.0,0.0328008519701132,-1.114589989352489,0.6044728434496415,17.431955348,78.371321472,556.12624,7.940080000000012,7.977199999999965
301,10.033333333333303,0.073127440538903,-0.0885339013159045,-0.3439119630833358,17.431953948,78.37132353866667,556.1275733333334,7.954413333333329,7.93386666666668
302,10.066666666666606,-0.3029463968765258,0.7803336883246765,0.4543130990405746,17.431952525333333,78.37132553733333,556.13004,7.94653333333336,7.929066666666647
303,10.100000000000023,0.1152289669842376,-1.7929712460004184,0.2127795527172821,17.431951092,78.37132750399999,556.1330399999999,7.928199999999984,7.942400000000011
304,10.133333333333326,0.1509407170740209,-0.1193468228628367,-0.4705715299976801,17.431949658666664,78.37132947066667,556.13604,7.909866666666672,7.955733333333329
305,10.166666666666629,0.0964856229976594,-0.0947106851148916,0.348952786656753,17.431948279867985,78.37133137920792,556.1246567656765,7.872805280528112,7.94877887788781
306,10.200000000000045,-0.1158679446230569,0.344834930779171,0.6555910543148764,17.43194692673267,78.37133326039604,556.106504950495,7.826930693069251,7.932277227722753
307,10.233333333333348,0.1516506922253507,-0.1623713170049266,-0.6192403265894459,17.43194557359736,78.37133514158415,556.0883531353135,7.781056105610546,7.915775577557751
308,10.266666666666652,-0.146609868654597,0.2658856940007099,0.5243166489172879,17.431944233333333,78.37133707833333,556.0880666666667,7.746150000000021,7.879666666666701
309,10.299999999999955,-0.0521831735889243,0.3887113951011715,0.0085197018104366,17.4319429,78.371339045,556.0974,7.717150000000054,7.833000000000087
310,10.333333333333371,0.1190628328013168,-0.9143059992858792,0.1201987930399383,17.431941566666666,78.37134101166667,556.1067333333333,7.688149999999989,7.786333333333315
311,10.366666666666674,0.0307419240335499,0.693574724882629,-0.4876819311335096,17.43194019,78.37134295666667,556.1056666666667,7.678,7.750500000000022
312,10.399999999999977,0.2287539936102042,-0.6583599573978296,-0.057507987219527,17.43193879,78.37134489,556.099,7.678,7.720500000000056
313,10.43333333333328,-0.0565850195242972,0.3640042598525324,0.5378061767846842,17.43193739,78.37134682333333,556.0923333333334,7.678,7.69050000000009
314,10.466666666666697,0.0446396876115515,0.3290734824258449,-0.4723997160090946,17.431936011666668,78.37134871333333,556.08675,7.669983333333334,7.68
315,10.5,-0.0832800851975217,0.4817891373895772,0.1910543130979664,17.431934645,78.37135058,556.08175,7.65765,7.68
316,10.533333333333303,-0.0690095846690696,-0.7062122825649814,-0.1823926162625571,17.431933278333332,78.37135244666666,556.0767500000001,7.645316666666667,7.68
317,10.566666666666606,-0.0593539226115849,-0.0255591054336344,-0.0864749733748857,17.43193194191419,78.37135432277228,556.0724257425743,7.615257425742597,7.671419141914199
318,10.600000000000023,-0.2070287539933825,0.8140575079878646,0.2159744408943556,17.43193062178218,78.37135620396039,556.0684653465347,7.575653465346458,7.658217821782152
319,10.633333333333326,0.0919417820376286,-1.1533546325878594,0.141640042598509,17.431929301650165,78.37135808514851,556.064504950495,7.536049504950454,7.645016501650151
320,10.666666666666629,-0.0802271920482783,0.982605608803692,-1.0844870429534967,17.431927944107745,78.37135998989899,556.0609124579124,7.51348484848485,7.614949494949501
321,10.700000000000045,0.1525026624044136,-0.5995740149128682,0.6048988285261818,17.431926563636363,78.37136190909091,556.0575454545454,7.501363636363614,7.574545454545379
322,10.733333333333348,-0.0330138445151513,0.5779197728065231,-0.0199503017413908,17.43192518316498,78.37136382828282,556.0541784511785,7.489242424242419,7.534141414141394
323,10.766666666666652,0.0002129925446506,-0.2173233936837297,-0.2983315583946618,17.431923833333332,78.37136564833334,556.0486666666667,7.453150000000036,7.513500000000007
324,10.799999999999955,-0.0762513312036112,0.1165069222557256,-0.218956336529006,17.4319225,78.371367415,556.042,7.404150000000092,7.503500000000018
325,10.833333333333371,-0.0347177848777326,-0.3554845580428222,0.1592474263380634,17.431921166666665,78.37136918166667,556.0353333333334,7.3551499999999805,7.4934999999999965
326,10.866666666666674,-0.0376286829961919,-0.3965921192760577,0.0887468938596834,17.431919811666667,78.371371035,556.0392833333333,7.339516666666665,7.457500000000037
327,10.899999999999977,-0.0255591054313099,0.9137380191693292,-0.1946219382321618,17.431918445,78.371372935,556.04895,7.3418499999999955,7.407500000000094
328,10.93333333333328,0.0579339723120732,-0.3418530351408642,-0.5285764998215376,17.431917078333335,78.371374835,556.0586166666667,7.344183333333326,7.357500000000151
329,10.966666666666697,-0.1056088036916336,0.0108271210514947,0.3526801561936604,17.431915733333334,78.37137667,556.0643833333334,7.328533333333334,7.342166666666666
330,11.0,-0.0521831735889243,0.2374866879659212,-0.0010649627263045,17.4319144,78.37137847,556.06805,7.3032,7.345499999999999
