frame,timestamp_s,gyro_x,gyro_y,gyro_z,gps_lat,gps_lon,gps_alt_m,speed_2d_mps,speed_3d_mps
0,0.0,0.0660276890308839,0.2066027689030884,-0.0532481363152289,17.4570121,78.37595185,580.235,5.98250000000001,6.0775
1,0.03333333333333144,-0.0332268370606192,0.3623003194883711,0.2066027689026706,17.457013041666666,78.3759503,580.2429166666667,5.957083333333327,6.069166666666676
2,0.06666666666666288,0.1003904863328245,-0.1246716364919805,-0.1934682286120227,17.457014008333335,78.37594870000001,580.2385833333334,5.98541666666666,6.025833333333343
3,0.09999999999999432,0.0434504792331105,0.0626198083053763,0.1412140575076094,17.457014975,78.3759471,580.23425,6.013749999999994,5.98250000000001
4,0.13333333333332575,-0.1939652112183083,0.3398651047226351,0.3236066737667523,17.45701595,78.37594550833334,580.2325833333333,6.033916666666668,5.957499999999993
5,0.1666666666666572,0.1093361732339609,-0.8449414270506126,0.1881434149798461,17.45701695,78.37594394166668,580.2389166666667,6.029583333333335,5.987499999999994
6,0.19999999999998863,0.0566560170391445,-0.3209797657071008,-0.4038338658150427,17.457017949999997,78.37594237500001,580.2452499999999,6.0252500000000015,6.017499999999994
7,0.23333333333332007,-0.0100106496272593,-0.1948881789134292,0.2115725949594911,17.457018933333334,78.3759408,580.2510833333333,6.019250000000002,6.038333333333335
8,0.2666666666666515,0.0504082357119377,-0.3394391196310877,0.3772097976572527,17.457019866666666,78.3759392,580.2554166666666,6.008250000000002,6.031666666666668
9,0.30000000000001137,-0.0521831735889243,0.56975505857295,-0.3216187433439829,17.4570208,78.3759376,580.25975,5.997249999999993,6.024999999999995
10,0.3333333333333428,-0.0709975150869719,0.1600993965211217,0.11395101171459,17.457021733333335,78.375936,580.2640833333334,5.993833333333344,6.017499999999994
11,0.36666666666667425,-0.046432374866974,0.1392261270869588,-0.2167554135603812,17.457022666666667,78.3759344,580.2684166666667,6.013166666666672,6.007499999999997
12,0.4000000000000057,0.0796592119275267,-0.7478168264108226,0.2048988285409368,17.4570236,78.3759328,580.27275,6.0325,5.9975000000000005
13,0.4333333333333371,-0.0351437699684324,-0.659140930067312,-0.049911253106324,17.457024533333335,78.3759312,580.27775,6.043750000000003,5.994999999999996
14,0.46666666666666856,0.0134185303506968,-0.0355697550579336,-0.0661696840617649,17.457025466666668,78.3759296,580.28475,6.030750000000003,6.014999999999996
15,0.5,0.2411075612362187,-0.5233226837099109,-0.4860489882847223,17.4570264,78.375928,580.29175,6.017750000000003,6.034999999999996
16,0.5333333333333314,-0.0146254881083182,0.4683706070309623,-0.1537806176785773,17.457027316666668,78.37592639166667,580.2938333333334,6.009,6.0466666666666695
17,0.5666666666666629,0.1493787717431076,0.7157969471079457,0.4360667376644166,17.457028183333335,78.37592475833333,580.2811666666666,6.012999999999999,6.033333333333336
18,0.5999999999999943,0.3107561235352633,1.148029818956488,0.3963791267302811,17.45702905,78.375923125,580.2685,6.016999999999999,6.020000000000002
19,0.6333333333333258,0.0411785587498686,0.871920482782421,-0.0159744408946776,17.457029925,78.37592149999999,580.25975,6.016750000000003,6.010833333333332
20,0.6666666666666572,-0.0234291799787007,-0.1309904153354633,0.2374866879659211,17.457030825,78.3759199,580.26275,6.003750000000003,6.014166666666665
21,0.6999999999999886,0.0063897763578274,-0.1597444089456869,-0.4195953141640042,17.457031725,78.3759183,580.26575,5.990750000000003,6.017499999999999
22,0.7333333333333201,0.1758608448699258,-1.1755768548092775,-0.0607738729131791,17.457032633333334,78.37591668333333,580.2694166666666,5.990749999999991,6.016666666666669
23,0.7666666666666515,0.086332978345167,-0.8089456868994184,0.1587504437346049,17.457033566666667,78.37591501666667,580.2750833333333,6.029749999999992,6.0033333333333365
24,0.8000000000000114,0.1069222577207157,-0.581895633654447,-0.4820021299259587,17.4570345,78.37591334999999,580.28075,6.0687500000000245,5.989999999999991
25,0.8333333333333428,0.2257011004608276,-0.9724529641461144,-0.0193113241036248,17.457035416666667,78.37591169999999,580.2871666666666,6.090583333333316,5.990000000000023
26,0.8666666666666742,0.1646432374869639,-0.3882854100132866,-0.4558040468588684,17.457036283333334,78.3759101,580.2958333333333,6.0609166666666585,6.030000000000012
27,0.9000000000000057,0.0826411075618745,-0.1384451544231911,-0.0027689030882502,17.457037149999998,78.3759085,580.3045,6.03125,6.07
28,0.9333333333333371,0.1554135605250102,0.1914802981879046,-0.440184593538873,17.457038025,78.37590689166666,580.3105833333334,6.009416666666667,6.092500000000007
29,0.9666666666666686,0.117926872559608,1.056372026980409,0.3325523606673197,17.457038925,78.37590525833333,580.3089166666667,6.011083333333334,6.062500000000006
30,1.0,0.1186368477093942,2.1050053248134475,0.5680511182101143,17.457039825,78.375903625,580.3072500000001,6.01275,6.032500000000006
31,1.0333333333333314,0.1476748313809017,0.5835995740149095,-0.4540291089811856,17.457040708333334,78.37590198333334,580.30525,6.01808333333333,6.01
32,1.0666666666666629,-0.182108626198083,1.1175008874689385,-0.2981895633652822,17.457041541666666,78.37590031666667,580.3022500000001,6.034416666666663,6.01
33,1.0999999999999943,-0.1529286474973375,-0.7931842385516508,-0.20468583599574,17.457042375,78.37589865,580.29925,6.050749999999996,6.01
34,1.1333333333333258,0.070500532481443,-1.062903798366775,0.353425630102875,17.457043225,78.37589698333333,580.2975,6.066999999999997,6.014166666666663
35,1.1666666666666572,0.027405040823513,-0.7762158324456719,-0.941640042597463,17.457044125,78.37589531666667,580.2995,6.082999999999997,6.030833333333329
36,1.1999999999999886,-0.0208732694354643,-1.4212992545251508,0.4046858359962849,17.457045025,78.37589365,580.3015,6.098999999999997,6.047499999999996
37,1.23333333333332,0.0380546680871279,-0.7803336883197489,-0.3542776002844743,17.457045925,78.37589198333333,580.30375,6.109000000000002,6.064166666666663
38,1.2666666666666515,0.0634007809719951,-0.2048988285406523,0.065814696486778,17.457046825,78.37589031666667,580.30675,6.101000000000002,6.08083333333333
39,1.3000000000000114,-0.0302449414262291,-0.176570820024688,-0.1808306709258565,17.457047725000002,78.37588865,580.30975,6.092999999999995,6.097500000000011
40,1.3333333333333428,-0.1410720624778455,0.8137735179266526,-0.300461483848602,17.45704861666667,78.37588699166666,580.3124166666666,6.081749999999988,6.10833333333333
41,1.3666666666666742,-0.0904508342208845,-0.6589279375223889,0.0887468938590297,17.457049483333336,78.37588535833333,580.3140833333333,6.060749999999994,6.101666666666665
42,1.4000000000000057,-0.0457933972310969,0.1703940362087327,-0.1608093716719914,17.45705035,78.375883725,580.31575,6.03975,6.095
43,1.4333333333333371,-0.2644657436989704,1.1888533901313454,-0.6656017039403621,17.457051225,78.37588209166667,580.3165833333334,6.025,6.084166666666672
44,1.4666666666666686,0.0717074902383259,-2.0904508342221257,-0.3848065317718359,17.457052125,78.37588045833333,580.3149166666667,6.028999999999999,6.060833333333338
45,1.5,-0.440468583599396,1.749946751863389,-0.0153354632584856,17.457053025,78.375878825,580.31325,6.032999999999999,6.037500000000005
46,1.5333333333333314,-0.8585729499459407,2.9701810436624427,-0.9137380191671498,17.457053916666666,78.37587719166666,580.3122500000001,6.036333333333332,6.021666666666665
47,1.5666666666666629,0.375008874689069,-1.2524671636480995,-1.096982605608933,17.457054783333334,78.37587555833333,580.31325,6.0376666666666665,6.028333333333332
48,1.5999999999999943,-0.0832800851969042,1.23322683706241,0.3380191693294875,17.45705565,78.37587392500001,580.31425,6.039,6.034999999999998
49,1.6333333333333258,-0.0062477813276728,0.6784522541721476,0.2457223997163029,17.457056525000002,78.37587228333334,580.3167500000001,6.037416666666669,6.04
50,1.6666666666666572,0.0411075612354693,-0.6041178558762406,0.2557330493433444,17.457057425000002,78.37587061666667,580.32375,6.027083333333335,6.04
51,1.6999999999999886,-0.2221512247070238,1.0057507987228949,0.230670926517176,17.457058325000002,78.37586895,580.33075,6.016750000000003,6.04
52,1.73333333333332,0.2453674121406259,-2.202555910543483,-0.0966276180334499,17.457059216666668,78.37586730833334,580.3368333333333,6.000083333333341,6.037500000000002
53,1.7666666666666515,0.1388001419948828,0.4295349662760753,-0.7131700390490288,17.457060083333335,78.37586574166667,580.3401666666666,5.964416666666675,6.027500000000002
54,1.8000000000000114,-0.0330138445154419,0.1874334398296059,0.8477103301384451,17.45706095,78.37586417499999,580.3435000000001,5.928749999999978,6.017499999999994
55,1.8333333333333428,0.0824281150156983,-1.1582534611291728,0.9181398651055556,17.457061806270627,78.37586260396039,580.3457524752475,5.900267326732669,6.0009240924092175
56,1.8666666666666742,0.1108271210508019,0.3931132410372042,-0.6214412495561215,17.457062631353136,78.37586101980197,580.3447623762376,5.893336633663362,5.964620462046184
57,1.9000000000000057,0.0195953141645757,-0.0785942492015732,0.1510117145893283,17.457063456435645,78.37585943564356,580.3437722772277,5.886405940594056,5.92831683168315
58,1.9333333333333371,0.0714944976925492,-0.0794462193809631,-0.0668086616970488,17.457064283333334,78.375857848,580.34278,5.87571999999999,5.898533333333331
59,1.9666666666666686,0.0670926517571279,-0.0189563365286996,-0.2320198793038268,17.457065116666666,78.37585624799999,580.34178,5.851719999999997,5.891866666666666
60,2.0,-0.1075612353565445,0.6166134185296371,-0.0739084132049469,17.45706595,78.375854648,580.34078,5.827720000000004,5.885200000000001
61,2.0333333333333314,0.4278310259137382,-2.1681221157248007,0.5455449059283385,17.457066768666667,78.37585306266666,580.3410266666667,5.798660000000017,5.874866666666675
62,2.066666666666663,0.0035498757544998,1.3282925097630458,0.4181043663472722,17.457067535333334,78.37585152933333,580.3456933333333,5.751660000000017,5.851533333333341
63,2.0999999999999943,-0.0596379126730564,1.7689030883919064,1.665601703940362,17.457068302,78.375849996,580.35036,5.704660000000017,5.828200000000008
64,2.1333333333333258,0.2161874334398295,-2.3205537806176784,-0.6393326233581824,17.457069090666668,78.37584844066667,580.3542933333333,5.680099999999981,5.79973333333335
65,2.166666666666657,0.0319488817891374,-0.1096911608093717,0.1806886758963435,17.457069957333335,78.37584680733333,580.3556266666667,5.7350999999999805,5.753066666666683
66,2.1999999999999886,0.0202342918005133,0.8423855165091257,0.6762513312045217,17.457070824000002,78.375845174,580.35696,5.79009999999998,5.706400000000016
67,2.23333333333332,0.3681221157264097,-1.0288959886380054,-0.7066382676609418,17.45707169066667,78.37584356266667,580.3616666666666,5.82500666666668,5.681733333333314
68,2.2666666666666515,0.0156904508341081,0.6186013489552639,-0.1390131345393176,17.457072557333333,78.37584202933334,580.3783333333333,5.788673333333347,5.735066666666648
69,2.3000000000000114,-0.0570820021300077,0.876251331201972,1.6660276890317944,17.457073424,78.375840496,580.395,5.752339999999983,5.788400000000026
70,2.333333333333343,0.0836350727723512,-0.0721334753244916,-1.442385516505484,17.457074268666666,78.37583895533334,580.4067533333333,5.724,5.821933333333315
71,2.3666666666666742,-0.1454739084134997,0.4212282570112479,0.874121405750755,17.457075035333332,78.37583738866667,580.4010866666666,5.724,5.785266666666648
72,2.4000000000000057,0.1182108626198083,-1.001703940362087,-0.3361022364217252,17.457075802,78.375835822,580.39542,5.724,5.748599999999982
73,2.433333333333337,0.0530351437699062,0.2741924032660479,-0.029605963791151,17.457076590666667,78.37583426266667,580.3935666666666,5.716373333333318,5.72
74,2.4666666666666686,-0.0972665956691515,0.6755413560525382,0.0507632232871849,17.457077457333334,78.37583272933334,580.4052333333333,5.681706666666662,5.72
75,2.5,0.20234291799787,-1.9435569755058573,0.6293929712460063,17.457078324,78.375831196,580.4169,5.647040000000005,5.72
76,2.5333333333333314,0.0780972665956691,0.0795172168974085,-0.756833510827121,17.457079168666667,78.37582966999999,580.4264400000001,5.616846666666672,5.712666666666679
77,2.566666666666663,-0.1231096911601773,0.6626908058212793,0.0912318068861657,17.457079935333333,78.37582816999999,580.42844,5.602513333333339,5.679333333333346
78,2.5999999999999943,-0.0021299254526092,-2.1435569755058577,0.3322683706070287,17.457080702,78.37582667,580.43044,5.588180000000005,5.646000000000012
79,2.6333333333333258,0.0756833510824905,-0.2122825701108996,0.1071352502662624,17.457081483333333,78.375825148,580.4330266666667,5.586093333333318,5.617066666666672
80,2.666666666666657,-0.2882499112524341,0.798864039760163,0.6322328718494127,17.457082316666664,78.375823548,580.4376933333333,5.627426666666652,5.603733333333338
81,2.6999999999999886,0.1899893503728483,-1.5861554845585513,-0.0839190628332536,17.45708315,78.37582194800001,580.44236,5.668759999999985,5.590400000000005
82,2.73333333333332,-0.0093006744765409,0.2312389066389747,-0.1363152289668407,17.457083976,78.37582037733334,580.4465866666667,5.686773333333356,5.588799999999986
83,2.7666666666666515,0.0079517216898546,-0.196876109336247,-0.0551650692224245,17.457084776,78.37581891066667,580.4492533333333,5.6221066666666895,5.628799999999986
84,2.8000000000000114,-0.0432374866882177,0.5456869009602244,-0.0790202342920854,17.457085576,78.37581744399999,580.45192,5.557439999999968,5.66880000000002
85,2.833333333333343,-0.0010649627263046,0.0976215832445864,-0.296059637912673,17.457086383333333,78.37581596999999,580.45796,5.509786666666673,5.686066666666635
86,2.8666666666666742,-0.1334753283635072,0.1175008874689385,0.4384096556620517,17.457087216666665,78.37581447,580.47596,5.522453333333339,5.622733333333302
87,2.9000000000000057,-0.0628328008518854,0.5605963791267451,-0.5228966986151368,17.45708805,78.37581297,580.49396,5.535120000000006,5.559399999999968
88,2.933333333333337,-0.0736244231451523,0.2975505857291325,0.6291089811854611,17.457088883333334,78.37581146999999,580.50976,5.541333333333326,5.512200000000004
89,2.9666666666666686,0.0089456869010274,-0.0208732694352464,0.2639687610938835,17.457089716666665,78.37580996999999,580.5177600000001,5.524666666666664,5.5222000000000016
90,3.0,0.0161874334396673,0.0745473908415626,-0.2345047923321061,17.45709055,78.37580847,580.52576,5.508000000000003,5.532199999999999
91,3.0333333333333314,-0.0515441959529418,-0.2044018459348756,-0.1383031593895384,17.457091368666667,78.37580697,580.5330266666667,5.4933866666666695,5.537066666666672
92,3.066666666666663,0.1108981185653101,-0.8193113241025062,-0.1138090166842295,17.457092135333333,78.37580547,580.5376933333333,5.486053333333336,5.523733333333338
93,3.0999999999999943,-0.1054313099037174,0.31714589989277,-0.0628328008524182,17.457092902,78.37580397,580.54236,5.478720000000003,5.510400000000005
94,3.1333333333333258,0.0692935747249414,-0.3796237131702194,-0.2791622293215971,17.457093676,78.37580248466666,580.54732,5.463686666666682,5.497800000000003
95,3.166666666666657,-0.075754348597816,-0.8171813986512348,0.4295349662763316,17.457094475999998,78.37580105133334,580.55332,5.421353333333348,5.487800000000004
96,3.1999999999999886,-0.0532481363152289,-0.1831735889243876,0.0756123535676251,17.457095276,78.375799618,580.55932,5.379020000000015,5.477800000000004
97,3.23333333333332,0.0667376641808778,-0.1324103656358265,-0.0525381611639879,17.457096076,78.37579816266667,580.5651733333333,5.360446666666643,5.461200000000014
98,3.2666666666666515,-0.0216542421016958,-0.2105076322304504,-0.1589634362810716,17.457096875999998,78.37579662933334,580.5705066666667,5.42611333333331,5.421200000000014
99,3.3000000000000114,-0.0438764643236892,1.28306709265132,-0.3312034078809481,17.457097676,78.375795096,580.57584,5.491780000000032,5.38119999999998
100,3.333333333333343,-0.2365637202684514,0.7947461838832832,0.2286119985800012,17.45709846133333,78.37579355533333,580.5797066666667,5.543880000000002,5.363933333333365
101,3.3666666666666742,-0.0869009584669476,0.4535321263785382,-0.3685481008160985,17.457099194666664,78.37579198866666,580.5783733333334,5.547880000000002,5.427266666666698
102,3.4000000000000057,0.0138445154423954,-1.5165069222569096,0.152715654951062,17.457099927999998,78.375790422,580.57704,5.5518800000000015,5.490600000000032
103,3.433333333333337,-0.1321973730921092,-0.8141995030181551,0.0756833510828109,17.457100676,78.37578887,580.5771733333333,5.551919999999994,5.540733333333335
104,3.4666666666666686,0.1715299964498538,-1.3686190983304125,-0.5571884984020171,17.457101476,78.37578737,580.5825066666666,5.537919999999998,5.544066666666667
105,3.5,0.0425985090520983,-0.5746538871118178,0.361022364217325,17.457102276,78.37578587,580.58784,5.523920000000002,5.5474
106,3.5333333333333314,0.2611998580051611,-0.1228966986134563,-0.4290379836706212,17.45710306133333,78.37578435533334,580.5895066666667,5.518793333333324,5.547066666666671
107,3.566666666666663,0.1253106141285055,1.022719204827831,0.7880724174653887,17.457103794666665,78.37578278866667,580.5781733333333,5.545126666666657,5.533733333333338
108,3.5999999999999943,0.6272630457933972,1.4685835995740149,-0.1714589989350372,17.457104528,78.375781222,580.56684,5.57145999999999,5.520400000000005
109,3.6333333333333258,0.3123180688688219,2.1888533901317517,-0.2029108981186336,17.457105283333334,78.37577966266667,580.5594666666667,5.592953333333331,5.515866666666657
110,3.666666666666657,-0.212566560171084,1.6377706780232204,0.0732694355688893,17.457106116666665,78.37577812933334,580.5661333333334,5.597286666666665,5.542533333333323
111,3.6999999999999886,-0.3927582534609036,1.15995740148765,-0.3064962726317037,17.45710695,78.375776596,580.5728,5.601619999999999,5.569199999999991
112,3.73333333333332,-0.1559105431304782,-0.4427405040894543,0.0001419950297853,17.457107783333335,78.37577506999999,580.5813733333333,5.601773333333339,5.591466666666665
113,3.7666666666666515,-0.2523074192405882,0.1421725239586911,-0.9357472488463155,17.457108616666666,78.37577356999999,580.5967066666667,5.587106666666672,5.598133333333331
114,3.8000000000000114,-0.1420660276892633,-1.371033013839554,0.153780617677179,17.45710945,78.37577207,580.61204,5.572439999999993,5.604800000000004
115,3.833333333333343,-0.1823926162590338,-1.576712815049628,-0.1330493432731343,17.457110283333336,78.37577055533333,580.6248066666667,5.569360000000018,5.606333333333326
116,3.8666666666666742,-0.1043663471776126,-1.4089456869011945,-0.0573659921898023,17.457111116666667,78.37576898866666,580.6284733333333,5.6073600000000186,5.589666666666658
117,3.9000000000000057,0.1271565495207667,-2.2455804046858363,0.4031948881789137,17.457111949999998,78.375767422,580.63214,5.645360000000019,5.572999999999992
118,3.933333333333337,0.0486332978345757,-1.2112176073837415,-0.1242456514022009,17.457112783333333,78.375765848,580.63478,5.6792533333333415,5.568800000000017
119,3.9666666666666686,0.0280440184593539,-1.0653177138800145,-0.1341853035143769,17.457113616666664,78.375764248,580.63378,5.698586666666669,5.608800000000006
120,4.0,-0.1846645367409077,-0.3047923322695038,0.4958466453672462,17.45711445,78.375762648,580.6327799999999,5.717919999999997,5.648799999999994
121,4.033333333333331,0.1325523606668003,0.4418175363848111,0.2477813276530719,17.457115283333334,78.37576105533333,580.6315599999999,5.734979999999997,5.68366666666666
122,4.066666666666663,0.0403265885703525,0.4788072417485788,-0.2496982605607855,17.457116116666665,78.37575948866666,580.62956,5.743979999999996,5.700333333333328
123,4.099999999999994,0.339297124602386,1.3968051118255935,0.2854100106494456,17.45711695,78.37575792199999,580.62756,5.752979999999996,5.716999999999994
124,4.133333333333326,0.4204472843450769,1.7417110401161435,0.1126020589278309,17.457117783333334,78.37575635533334,580.6250466666667,5.7589000000000015,5.732199999999997
125,4.166666666666657,0.3704650337217081,2.242527511536324,0.3747248846283793,17.457118616666666,78.37575478866667,580.6207133333334,5.753900000000002,5.742199999999997
126,4.199999999999989,0.0050585729484087,2.493876464322045,0.0843982960582095,17.45711945,78.375753222,580.61638,5.748900000000002,5.752199999999997
127,4.23333333333332,-0.0385516506930502,1.4419595314157103,0.2394036208733165,17.45712029066667,78.375751648,580.6157133333334,5.75115999999999,5.758533333333336
128,4.2666666666666515,-0.4917287894933327,2.044231451898416,-0.1383031593902398,17.457121157333333,78.375750048,580.6280466666667,5.77915999999999,5.751866666666669
129,4.300000000000011,-0.5399361022364217,1.3535676251331203,0.1991480298189563,17.457122024,78.37574844800001,580.64038,5.807160000000014,5.745199999999997
130,4.333333333333343,-0.3936812211572595,0.2563010294639687,0.0901668441604544,17.457122885185186,78.37574684444445,580.6494074074074,5.831518518518523,5.74666666666668
131,4.366666666666674,-0.3783457578992278,0.6256301029483571,-1.3212637557687177,17.457123726936025,78.37574522828282,580.6467138047138,5.842966329966332,5.776969696969704
132,4.400000000000006,-0.3831735889245196,-0.6869009584651764,0.3145899893505507,17.45712456868687,78.37574361212121,580.6440202020202,5.854414141414141,5.807272727272727
133,4.433333333333337,-0.3174298899535271,-0.6124245651372078,-0.2917997870064014,17.457125408333333,78.37574199166666,580.6415000000001,5.863416666666667,5.832499999999998
134,4.466666666666669,-0.1528576499824999,-0.2021299254491513,-0.7483138090187669,17.457126241666668,78.37574035833333,580.6395,5.865083333333334,5.842499999999999
135,4.5,-0.1870074547388879,-1.274547390844098,0.3205537806176541,17.457127075,78.375738725,580.6375,5.86675,5.852499999999998
136,4.533333333333331,-0.1397941072061726,-0.9304224352172128,-0.4065317713882218,17.457127908333334,78.37573709166666,580.6396666666666,5.873916666666662,5.860833333333333
137,4.566666666666663,-0.1226837060702402,-1.3681221157275598,0.0203762868304864,17.45712874166667,78.37573545833334,580.6543333333333,5.897583333333328,5.864166666666666
138,4.599999999999994,-0.0193823216182057,-1.7082002129934108,0.0428115015977238,17.457129575,78.37573382500001,580.669,5.921249999999995,5.8675
139,4.633333333333326,0.113241036563922,-1.599840255591268,-0.1187433439825482,17.457130408333335,78.37573217500001,580.6804166666666,5.942416666666664,5.875833333333328
140,4.666666666666657,0.1029463968761093,-1.7639332623358182,0.5186368477103301,17.457131241666666,78.375730475,580.6820833333333,5.95608333333333,5.899166666666662
141,4.699999999999989,0.3642172523961661,-2.564430244941427,-0.2300319488817891,17.457132075,78.375728775,580.6837499999999,5.969749999999998,5.922499999999995
142,4.73333333333332,0.3020944266934917,-1.4371317003850188,0.1647852325180145,17.45713290833333,78.37572709166666,580.6856666666666,5.976583333333337,5.943333333333331
143,4.7666666666666515,0.0968406105785667,-1.4417465388670276,0.3109691160802107,17.457133741666667,78.37572545833333,580.6883333333333,5.96291666666667,5.956666666666664
144,4.800000000000011,0.2057507987226209,-1.8089456869026512,-0.0212992545257646,17.457134575,78.375723825,580.691,5.949249999999991,5.970000000000009
145,4.833333333333343,0.1368832090875923,-0.4892438764660091,0.9554135605233888,17.4571354,78.375722175,580.6951666666666,5.94491666666668,5.97666666666666
146,4.866666666666674,0.2946396876110062,-1.7316293929788735,-0.2275470358536543,17.4571362,78.375720475,580.7038333333334,5.96858333333334,5.96333333333333
147,4.900000000000006,0.1646432374887075,-0.1767838125712638,-0.0651757188505739,17.457137,78.375718775,580.7125000000001,5.99225,5.95
148,4.933333333333337,0.2310259140928771,-1.157543485975573,0.2479233226838622,17.457137783333334,78.37571708333333,580.7186666666668,6.004416666666671,5.945833333333328
149,4.966666666666669,-0.0041178558754087,-0.1804756833499615,0.3250976215827881,17.457138516666667,78.37571541666667,580.7173333333334,5.982083333333338,5.969166666666662
150,5.0,0.0521831735889243,0.3823216187433439,0.2342917997870074,17.45713925,78.37571375,580.716,5.959750000000004,5.992499999999995
151,5.033333333333331,0.3613773517926872,-1.0113596024139155,-1.060702875399361,17.45714001885522,78.37571206228957,580.7160101010102,5.961434343434329,6.004107744107749
152,5.066666666666663,0.0559105431308353,0.5780972665959806,0.7951721689738463,17.457140894276094,78.37571031144782,580.7200505050505,6.035171717171706,5.980538720538724
153,5.099999999999994,0.2492012779552714,0.1024494142705005,0.2528221512247071,17.457141769696968,78.37570856060606,580.7240909090909,6.108909090909084,5.9569696969697
154,5.133333333333326,0.0827121050757351,0.3049343272976607,-0.6183883564078103,17.457142642666664,78.375706824,580.7316666666667,6.156773333333335,5.960533333333329
155,5.166666666666657,0.1789137380212396,0.431380901672052,0.1610223642180587,17.45714350933333,78.375705124,580.7483333333333,6.138106666666668,6.033866666666662
156,5.199999999999989,0.1991480298212082,0.5094781682669401,-0.067518636847525,17.457144376,78.37570342400001,580.765,6.119440000000001,6.107199999999995
157,5.23333333333332,0.4937877174313912,1.0816471423534804,0.5889243876460691,17.457145226262625,78.37570170976431,580.7769057239058,6.110713804713802,6.155286195286198
158,5.2666666666666515,0.7452609158664119,1.4442314518999877,-0.4573659921897091,17.457146034343435,78.37569995892257,580.776569023569,6.127548821548815,6.138451178451185
159,5.300000000000011,0.2178913738023382,0.8621938232113059,0.793184238552939,17.457146842424244,78.3756982080808,580.7762323232323,6.144383838383842,6.121616161616158
160,5.333333333333343,0.4217962371315449,1.3062832800829511,-0.0371317003889506,17.457147658333334,78.37569646266667,580.7803399999999,6.159203333333334,6.115166666666668
161,5.366666666666674,0.5292864749733759,1.0241391551295704,0.0642527511537095,17.45714849166667,78.37569472933333,580.7943399999999,6.169536666666668,6.131833333333335
162,5.400000000000006,0.5378061767838126,0.7252396166134185,0.1288604898828541,17.457149325,78.375692996,580.8083399999999,6.179870000000001,6.148500000000001
163,5.433333333333337,0.6322328718506228,1.593184238550614,0.646077387292325,17.45715015050505,78.37569124680135,580.8208181818181,6.185434343434343,6.163131313131315
164,5.466666666666669,0.4700745473911101,1.1429889953843722,0.1333333333328502,17.45715095858586,78.37568946228956,580.829909090909,6.180383838383838,6.173232323232325
165,5.5,0.2979765708199232,1.549946751862301,0.2856230031951133,17.457151766666666,78.37568767777778,580.839,6.175333333333332,6.183333333333335
166,5.533333333333331,0.3991480298191924,2.273908413202517,0.5258785942502545,17.457152574747475,78.37568588181819,580.845228956229,6.183562289562294,6.187710437710437
167,5.566666666666663,0.3936812211558873,1.4597089101881942,-0.3043663471781271,17.457153382828285,78.37568406363636,580.8459023569023,6.21756902356902,6.180976430976432
168,5.599999999999994,0.310969116079448,1.362087326944453,0.4479233226845512,17.45715419090909,78.37568224545454,580.8465757575757,6.251575757575746,6.1742424242424265
169,5.633333333333326,0.2767483138081643,1.2078807241755327,-0.2251331203408389,17.457154983666666,78.37568045866666,580.8507,6.2658466666666754,6.182333333333317
170,5.666666666666657,-0.1513667021663128,1.98622648207408,-0.0773162939308238,17.45715575033333,78.37567872533333,580.8607,6.246513333333343,6.2156666666666505
171,5.699999999999989,0.3246006389768838,0.3167199148027422,-0.0543130990412732,17.457156516999998,78.375676992,580.8706999999999,6.2271800000000095,6.248999999999984
172,5.73333333333332,0.2438764643220052,0.681576144835064,0.2509762158331077,17.457157311447812,78.3756752023569,580.8788686868686,6.237299663299635,6.263771043771051
173,5.7666666666666515,0.1870784522531984,1.260560880370315,-0.0564430244955349,17.45715815319865,78.37567331683502,580.8839191919192,6.297569023568999,6.246936026936034
174,5.800000000000011,0.2896698615556143,2.597870074546049,-0.0785942492007197,17.457158994949495,78.37567143131312,580.8889696969698,6.357838383838413,6.230101010101001
175,5.833333333333343,0.6237131700400232,0.6869009584672527,-0.0398296059643868,17.45715982,78.37566958,580.8949333333334,6.386266666666657,6.244000000000031
176,5.866666666666674,0.0876819311339516,1.4902378416764923,-0.209797657079732,17.45716062,78.37566778,580.9022666666667,6.366933333333324,6.304000000000031
177,5.900000000000006,0.0477103301414285,2.253035143771104,-0.3405750798694367,17.45716142,78.37566598000001,580.9096,6.34759999999999,6.364000000000031
178,5.933333333333337,0.6968406105776975,-0.2104366347170802,-0.2303869364590885,17.45716220976431,78.37566415925926,580.9165589225589,6.343407407407415,6.391919191919184
179,5.966666666666669,0.1383031593887211,1.2354987575427334,0.2957046503356845,17.457162984175085,78.37566230740741,580.9229562289562,6.361925925925929,6.371717171717168
180,6.0,0.3060702875383525,1.0187433439825948,0.0144834930772918,17.45716375858586,78.37566045555556,580.9293535353535,6.380444444444444,6.351515151515152
181,6.033333333333331,0.4433084842026085,1.0470003549879434,0.1312744053960205,17.457164544,78.37565861166667,580.93515,6.397163333333331,6.347166666666663
182,6.066666666666663,0.1422790202336779,1.880724174655122,0.2132055378052941,17.457165344,78.37565677833334,580.94015,6.411496666666664,6.3638333333333295
183,6.099999999999994,0.5548455804046858,1.2034078807241746,0.1160809371671991,17.457166144000002,78.37565494500001,580.94515,6.425829999999998,6.380499999999996
184,6.133333333333326,0.5502307419240327,0.9055733049343272,0.020234291799787,17.45716694059406,78.37565310528053,580.9518316831683,6.437689768976896,6.397095709570953
185,6.166666666666657,0.3454739084121522,1.4503372381983055,0.4150514731965473,17.457167732673266,78.37565125709571,580.9607425742574,6.446270627062704,6.413597359735969
186,6.199999999999989,0.4875399361014906,1.6247071352558211,0.0975505857284194,17.457168524752475,78.37564940891089,580.9696534653466,6.454851485148512,6.430099009900985
187,6.23333333333332,0.7824636137757117,1.3254526091615344,0.0450834220811351,17.457169316831685,78.37564756072607,580.9735478547855,6.467260726072601,6.442640264026401
188,6.2666666666666515,0.4441604543821498,1.206389776359255,0.5018814341488822,17.45717010891089,78.37564571254126,580.9699174917492,6.485412541254118,6.449240924092407
189,6.300000000000011,0.3791267305651445,1.5060702875371468,0.0415335463274646,17.4571709009901,78.37564386435643,580.9662871287129,6.503564356435651,6.455841584158419
190,6.333333333333343,0.4471423500178292,1.163010294637523,0.1238196663110834,17.45717170228758,78.37564201078432,580.9690784313726,6.524794117647067,6.467254901960791
191,6.366666666666674,0.4438054668085672,0.2719914802979498,-0.3750088746900324,17.457172519281045,78.37564014803921,580.9828039215687,6.551264705882359,6.486862745098044
192,6.400000000000006,0.3968051118210862,0.6958466453674123,0.4406815761448349,17.45717333627451,78.37563828529412,580.9965294117648,6.577735294117651,6.506470588235296
193,6.433333333333337,0.4055378061770126,0.8868299609528826,0.3113951011711284,17.45717412508251,78.37563641683168,581.0050792079207,6.593442244224422,6.52818481848185
194,6.466666666666669,0.4838480653177139,0.6876109336173233,0.027689030883919,17.457174851155116,78.37563453564356,581.002108910891,6.585191419141914,6.554587458745875
195,6.5,0.5410010649627263,0.6219382321618744,0.4685835995740149,17.457175577227723,78.37563265445544,580.9991386138613,6.576940594059406,6.5809900990099
196,6.533333333333331,0.3534966276178977,0.4798012069563895,0.4197373091942314,17.457176331023103,78.37563077326732,580.9987557755775,6.57192409240924,6.597227722772278
197,6.566666666666663,0.3004614838473437,0.5835285764985124,0.3030883919063595,17.45717715610561,78.3756288920792,581.0050264026402,6.575224422442244,6.587326732673269
198,6.599999999999994,0.3064962726328297,0.3041533546362417,-0.1356762513313813,17.457177981188117,78.3756270108911,581.011297029703,6.578524752475247,6.57742574257426
199,6.633333333333326,0.2992545260930033,0.2455804046916329,0.296130635427157,17.457178779738562,78.37562511797387,581.0134673202614,6.5875359477124125,6.570816993464052
200,6.666666666666657,-0.1875221867212733,0.3580937167213619,0.3240149094777993,17.45717949869281,78.37562318986929,581.0033366013072,6.613679738562083,6.57408496732026
201,6.699999999999989,0.1160809371681072,-0.0809371671962301,0.5669861554844999,17.457180217647057,78.3756212617647,580.993205882353,6.639823529411753,6.5773529411764695
202,6.73333333333332,0.0288249911253735,-0.0771033013823594,-0.1475328363514129,17.45718095049505,78.3756193488449,580.9863168316832,6.656234323432356,6.585016501650151
203,6.7666666666666515,0.0316648917288282,-0.3898473553407553,0.2228611998577482,17.457181742574257,78.37561750066007,580.9932475247525,6.631151815181532,6.611419141914177
204,6.800000000000011,-0.0949946751883734,-0.3463258785980944,0.0636847710344957,17.457182534653466,78.37561565247525,581.0001782178217,6.606069306930687,6.637821782178224
205,6.833333333333343,-0.0188143414980475,-0.3024494142705005,0.8611998580049698,17.457183325490195,78.37561379673203,581.0057908496732,6.588764705882357,6.656339869281042
206,6.866666666666674,0.0372736954206602,-1.3883564075257366,-0.3532126375576854,17.457184109803922,78.3756119013072,581.0044836601306,6.612294117647061,6.63346405228758
207,6.900000000000006,-0.1469648562295477,-0.9273695420665774,0.6894568690091936,17.457184894117646,78.37561000588235,581.0031764705882,6.6358235294117645,6.610588235294117
208,6.933333333333337,-0.1030173943913621,-1.0895988640412466,0.5696840610577818,17.45718568250825,78.37560810528052,581.0017359735973,6.65957425742574,6.5923102310231
209,6.966666666666669,0.0348597799080688,-1.5492367767152149,-0.3067092651756098,17.45718650759076,78.3756061580858,580.999095709571,6.685316831683165,6.6154125412541225
210,7.0,-0.1062832800850928,-0.8596379126735965,0.5518636847692968,17.457187332673268,78.3756042108911,580.9964554455446,6.711059405940589,6.638514851485144
211,7.033333333333331,-0.1337593184232957,-0.9907703230407156,0.1814696485631866,17.457188157755777,78.37560226138615,580.9950396039604,6.737009900990093,6.661848184818476
212,7.066666666666663,0.1081292154768964,-1.681505147318897,0.0948526801570323,17.457188982838282,78.37560028118813,581.0098910891089,6.76572277227722,6.688250825082501
213,7.099999999999994,-0.1876996805107299,-1.2228434504795451,0.5942492012785833,17.45718980792079,78.3755983009901,581.0247425742574,6.794435643564347,6.714653465346526
214,7.133333333333326,0.0041178558753664,-1.0521121760749972,-0.2034078807236662,17.45719063137255,78.37559632287582,581.0388954248366,6.821660130718958,6.741045751633977
215,7.166666666666657,-0.0067447639327054,-0.97053603124042,0.5903443379497215,17.457191415686275,78.37559439477124,581.0362810457516,6.813163398692814,6.767189542483648
216,7.199999999999989,-0.2981895633652822,-1.2385516506922258,0.402555910543131,17.4571922,78.37559246666667,581.0336666666666,6.804666666666671,6.793333333333319
217,7.23333333333332,-0.0202342917986004,-0.1952431664942863,-0.4451544195936433,17.457192984313725,78.3755905385621,581.0310522875817,6.796169934640528,6.819477124182989
218,7.2666666666666515,-0.2371317003895903,-0.0603478878288417,-0.121547745824518,17.457193808580858,78.37558855940594,581.0322937293729,6.812495049504939,6.813531353135319
219,7.300000000000011,-0.2958466453671566,-0.2572949946746996,-0.376570820021315,17.457194633663367,78.37558657920792,581.0336138613861,6.82932673267327,6.806930693069306
220,7.333333333333343,-0.2508342208022186,0.2626198083073484,-0.4027689030878906,17.457195458745876,78.3755845990099,581.0349339933994,6.846158415841585,6.8003300330033
221,7.366666666666674,-0.2572949946752808,0.039403620874577,-0.1681931132417726,17.45719625247525,78.37558258745875,581.0434653465346,6.8755313531353135,6.815676567656765
222,7.400000000000006,-0.3028753993604194,0.2907348242823669,-0.309478168263969,17.457197044554455,78.37558057425743,581.0523762376238,6.905564356435642,6.832178217821781
223,7.433333333333337,-0.2369897053594992,0.0166134185306965,0.1072062477812872,17.457197836633664,78.3755785610561,581.0612871287129,6.93559735973597,6.848679867986797
224,7.466666666666669,-0.1109691160809989,0.347319843805175,-0.6210152644661058,17.457198659075907,78.37557660858086,581.0601782178218,6.927372937293731,6.877326732673263
225,7.5,-0.1288604898825635,1.0566560170390296,-1.4538871139505347,17.457199484158416,78.37557466138614,581.058198019802,6.915821782178219,6.907029702970291
226,7.533333333333331,0.1007277245290809,-0.3037806176783982,-0.0012424565134229,17.457200309240925,78.37557271419142,581.0562178217822,6.904270627062709,6.93673267326732
227,7.566666666666663,-0.0592829250976215,1.0514731984380548,0.3248136315228966,17.457201098039217,78.375570725817,581.0589084967321,6.906781045751632,6.9283660130719005
228,7.599999999999994,-0.0298189563365282,1.4164004259850904,-0.2917997870074547,17.457201882352944,78.37556873235295,581.0621764705883,6.911029411764704,6.915294117647065
229,7.633333333333326,0.2717074902383852,0.8861909833166906,0.0922967696134025,17.457202666666667,78.37556673888889,581.0654444444444,6.915277777777776,6.902222222222229
230,7.666666666666657,0.145189918351778,1.4017039403612883,-0.09847355342766,17.457203457425745,78.3755647290429,581.0706567656766,6.930244224422433,6.9054785478547815
231,7.699999999999989,0.3188498402536623,1.195101171460132,-0.1429179978700999,17.45720424950495,78.37556271584158,581.0762673267327,6.947405940594049,6.9120792079207884
232,7.73333333333332,0.3957401490952393,0.8410365637224091,0.3909123180690819,17.45720504158416,78.37556070264027,581.0818778877888,6.964567656765665,6.9186798679867945
233,7.7666666666666515,0.4739084132043392,1.1206247781334289,0.2725594604174301,17.457205833663366,78.37555871584159,581.0861683168316,6.962983498349839,6.933201320132001
234,7.800000000000011,0.4296059637913181,0.7676251331180453,0.1218317358891312,17.457206625742575,78.37555673564357,581.0901287128713,6.956712871287128,6.949702970297031
235,7.833333333333343,0.2954206602761698,0.8186723464658315,0.4435924742640343,17.45720741782178,78.37555475544555,581.0940891089109,6.950442244224422,6.966204620462047
236,7.866666666666674,0.3822506212285572,0.2442314519002428,-0.1868654597090239,17.457208184488447,78.37555272442245,581.0937293729373,6.953320132013201,6.964917491749175
237,7.900000000000006,-0.1160809371671991,0.663471778487753,0.6741214057507987,17.457208943564357,78.37555067821782,581.0920792079208,6.9589306930693065,6.9583168316831685
238,7.933333333333337,0.1089811856585019,0.2073127440539579,0.6858359957401491,17.457209702640263,78.3755486320132,581.0904290429044,6.964541254125412,6.9517161716171625
239,7.966666666666669,0.2210685126020734,-0.3889776357836272,-0.8732694355694599,17.457210480392156,78.37554657647058,581.0897581699347,6.997679738562083,6.954836601307188
240,8.0,-0.0949946751861032,0.2994675186355353,0.7995740149093196,17.45721126470588,78.37554451764706,581.089431372549,7.040490196078419,6.961372549019606
241,8.033333333333331,0.0139155129568371,-0.5334043308491843,0.467234646787837,17.457212049019606,78.37554245882352,581.0891045751634,7.083300653594756,6.967908496732023
242,8.066666666666663,0.0734824281144106,-0.9462548810765632,0.4588569400069625,17.457212866666666,78.37554041733333,581.0969333333334,7.103799999999996,6.999466666666649
243,8.099999999999994,0.0219382321614965,-0.3501597444045617,0.1565495207663009,17.4572137,78.375538384,581.1086,7.113799999999996,7.042799999999982
244,8.133333333333326,0.0179623713170232,-1.1917642882505917,0.5583244586447078,17.45721453333333,78.37553635066666,581.1202666666667,7.123799999999996,7.086133333333315
245,8.166666666666657,0.1468228611989088,-0.7213347532817223,0.9947461838833124,17.45721538933333,78.37553431733333,581.1285333333334,7.123373333333335,7.106799999999995
246,8.199999999999989,0.0308839190628569,-1.3985090521824362,-0.0151224707138471,17.457216256,78.375532284,581.1352,7.118040000000002,7.116799999999996
247,8.23333333333332,-0.0564430244937613,-0.5307064252766167,-0.0725594604181637,17.457217122666666,78.37553025066666,581.1418666666667,7.112706666666669,7.126799999999996
248,8.266666666666652,-0.160809371671719,-0.962726304581422,0.3773517926884465,17.457217898666666,78.37552814933333,581.1410533333334,7.122559999999993,7.12546666666667
249,8.300000000000011,-0.0362087326943557,-1.0287539936102237,0.1650692225772098,17.457218632,78.375526016,581.13672,7.139560000000008,7.118799999999998
250,8.333333333333343,-0.3768548100824294,-0.2518281860124409,-0.036492722755827,17.457219365333334,78.37552388266667,581.1323866666667,7.156560000000008,7.112133333333331
251,8.366666666666674,-0.0894568690097299,-0.5100461483835691,-0.1091231806888199,17.457220144,78.37552179466667,581.1341733333334,7.148173333333324,7.121333333333341
252,8.400000000000006,-0.3176251331200551,0.158679446219753,-0.4070820021303662,17.457220944,78.375519728,581.13884,7.127839999999991,7.138000000000008
253,8.433333333333337,-0.1203407880723085,0.0470003549882703,-0.5047213347529906,17.457221744,78.37551766133333,581.1435066666667,7.107506666666658,7.1546666666666745
254,8.466666666666669,-0.2785232516858955,0.4518991835283464,0.0298189563367461,17.457222521333335,78.375515572,581.145,7.117320000000006,7.146399999999995
255,8.5,0.0136315228965944,-0.1216187433443897,-0.1601703940360053,17.457223288,78.37551347200001,581.145,7.14132,7.1264
256,8.533333333333331,-0.0024139155126277,0.8695065672688791,-0.8480653177143038,17.457224054666668,78.375511372,581.145,7.165319999999992,7.106400000000006
257,8.566666666666663,-0.0584309549174508,-0.109975150870044,-0.0362797302087247,17.457224821333334,78.37550924933333,581.14568,7.18342666666666,7.115866666666657
258,8.599999999999994,-0.0996805111821848,1.161661341852822,0.9914802981890912,17.457225588,78.37550711600001,581.1466800000001,7.198759999999994,7.13919999999999
259,8.633333333333326,0.3191338303159389,-0.1068512602058928,-0.3251686190983315,17.457226354666666,78.37550498266667,581.14768,7.214093333333327,7.162533333333323
260,8.666666666666657,0.1423500177493787,0.2928647497337592,-0.2389066382676606,17.457227144,78.37550289466667,581.1516266666666,7.197920000000013,7.181333333333327
261,8.699999999999989,0.2834930777424678,0.5103301384462876,0.0549520766762847,17.457227944,78.375500828,581.15696,7.166920000000013,7.197999999999993
262,8.73333333333332,0.2930777422785552,0.2793752218656849,-0.3806886758948713,17.457228744000002,78.37549876133333,581.1622933333333,7.135920000000013,7.21466666666666
263,8.766666666666652,0.3549875754336843,0.797657082002705,0.5278665246696943,17.457229476000002,78.37549662666667,581.1676266666666,7.155013333333316,7.199600000000012
264,8.800000000000011,0.2792332268366079,0.1806176783833246,-0.4826411075619812,17.457230176000003,78.37549446,581.17296,7.197680000000019,7.169599999999987
265,8.833333333333343,0.1018814341496407,-0.1615193468226215,0.4401845935402981,17.457230876,78.37549229333334,581.1782933333333,7.240346666666685,7.139599999999986
266,8.866666666666674,0.1726659566900374,0.1538516151900648,-0.1542066027686415,17.45723166666667,78.37549014933333,581.1863466666666,7.25966666666667,7.157200000000017
267,8.900000000000006,0.1925452609137359,0.3158679446191088,0.1465388711387328,17.4572325,78.375488016,581.1956799999999,7.268000000000003,7.197200000000017
268,8.933333333333337,0.1405750798723134,-0.2012779552704759,-0.0847000354990856,17.45723333333333,78.37548588266667,581.2050133333333,7.276333333333337,7.237200000000017
269,8.966666666666669,-0.0260560880371232,-0.4286829960940785,0.3423500177495471,17.457234144,78.375483704,581.2172933333334,7.315493333333347,7.256800000000003
270,9.0,-0.0436634717784877,-0.9637912673056444,0.1522896698615548,17.457234944,78.37548150399999,581.23096,7.369159999999998,7.2668
271,9.033333333333331,0.1001064962726305,-0.3638622648207313,0.083422080227192,17.457235744000002,78.375479304,581.2446266666667,7.42282666666665,7.276799999999997
272,9.066666666666663,0.0713525026623886,-1.080014199504003,0.5823216187431188,17.457236453333334,78.37547714933334,581.25104,7.398746666666692,7.316266666666645
273,9.099999999999994,0.0866879659211927,-0.7495207667731629,0.3003194888178913,17.457237120000002,78.375475016,581.25404,7.338080000000025,7.369599999999979
274,9.133333333333326,0.112247071353625,-1.0898828541032446,0.150230741925391,17.457237786666667,78.37547288266667,581.2570400000001,7.277413333333358,7.422933333333312
275,9.166666666666657,0.0027689030885771,-0.5370962016349768,0.0748313809027617,17.457238430666667,78.37547070400001,581.25528,7.270239999999992,7.399200000000024
276,9.199999999999989,-0.084664536739379,-0.875931842389841,0.0633652822168288,17.457239064,78.375468504,581.25128,7.288239999999993,7.339200000000025
277,9.23333333333332,-0.0802271920477213,-0.2077387291471217,-0.3150159744401608,17.457239697333335,78.375466304,581.2472799999999,7.306239999999993,7.279200000000024
278,9.266666666666652,-0.2718494852671173,0.2375576854774148,-0.3524316648901646,17.457240398666666,78.37546412666667,581.2509866666667,7.319479999999996,7.2713333333333265
279,9.300000000000011,-0.2063897763581713,-0.0519701810380748,-0.1239616613433688,17.457241132,78.37546196,581.25832,7.330480000000005,7.288000000000007
280,9.333333333333343,-0.2170394036207339,0.197941072063515,-0.9339723109696306,17.457241865333334,78.37545979333333,581.2656533333334,7.341480000000005,7.304666666666674
281,9.366666666666674,-0.3436279730209443,0.9329073482428116,0.1217607383741568,17.457242576,78.375457604,581.2695866666667,7.350213333333337,7.319066666666672
282,9.400000000000006,-0.040468583599574,-0.4313099041533546,-0.2076677316293929,17.457243276,78.375455404,581.27192,7.357880000000003,7.332400000000005
283,9.433333333333337,-0.1560525381611231,0.4856940007097838,-1.1802626908062186,17.457243976,78.375453204,581.2742533333333,7.3655466666666705,7.345733333333339
284,9.466666666666669,-0.1232516861906104,0.7351082712107171,-0.0691515796940181,17.457244657912458,78.37545098888889,581.2782053872054,7.378074074074078,7.354579124579126
285,9.5,0.0969116080944915,0.2202342918006393,-0.0489882854098532,17.457245331313132,78.37544876666666,581.2829191919192,7.39288888888889,7.361313131313132
286,9.533333333333331,0.0375576854815005,0.6228611998580614,-0.1441959531408046,17.457246004713806,78.37544654444444,581.287632996633,7.4077037037037,7.368047138047137
287,9.566666666666663,0.3960241391537081,0.5290024849130183,-0.0006389776360225,17.457246697,78.375444338,581.2998866666667,7.41957333333333,7.379466666666663
288,9.599999999999994,0.2144834930774178,0.3571884984021103,0.3043663471776477,17.457247397,78.375442138,581.3152200000001,7.430239999999997,7.392799999999997
289,9.633333333333326,0.2413915512954801,0.5406460773874302,-0.0227192048291678,17.457248097,78.375439938,581.3305533333333,7.440906666666664,7.40613333333333
290,9.666666666666657,0.3749378771746706,0.4183173588924496,0.099112531061512,17.457248749666668,78.37543771433333,581.3359466666667,7.434770000000004,7.419466666666663
291,9.699999999999989,0.1823216187433693,-0.0289669861554736,0.049414270500438,17.457249383,78.375435481,581.3372800000001,7.421770000000004,7.432799999999997
292,9.73333333333332,0.1700390486347103,0.5402910898152142,0.2854100106488403,17.457250016333333,78.37543324766666,581.3386133333333,7.408770000000004,7.44613333333333
293,9.766666666666652,0.3351082712112058,0.203762868301587,-0.1466098686545687,17.45725064966667,78.375430967,581.3330833333333,7.431033333333324,7.440533333333337
294,9.800000000000011,0.0577209797657759,0.0219382321606429,0.412992545261181,17.457251283,78.375428667,581.32475,7.467700000000021,7.427199999999992
295,9.833333333333343,0.0117145899890416,-0.1228966986156174,0.9341853035147476,17.457251916333334,78.37542636699999,581.3164166666667,7.504366666666688,7.413866666666659
296,9.866666666666674,0.1198438054670217,-0.991551295707946,0.3708910188145933,17.457252554208754,78.37542409831649,581.3211717171718,7.523606060606065,7.436296296296311
297,9.900000000000006,0.0879659211932764,-0.671139510119284,-0.1923322683702776,17.457253193939394,78.37542184242423,581.3312727272728,7.535727272727275,7.47333333333334
298,9.933333333333337,0.0156194533189118,-0.8664536741214784,0.8589989350366198,17.457253833670034,78.37541958653198,581.3413737373738,7.547848484848484,7.510370370370368
299,9.966666666666669,0.2364927227545845,-1.2641817536368691,-0.1614483493085793,17.457254468666665,78.375417298,581.3427666666668,7.554946666666666,7.527399999999998
300,10.0,0.1038338658149423,-0.5764110756126355,-0.1629392971232385,17.457255101999998,78.375414998,581.3411000000001,7.56028,7.537399999999998
301,10.033333333333331,-0.013844515441796,-0.8075967341155168,0.6498402555913158,17.457255735333334,78.375412698,581.3394333333334,7.565613333333333,7.547399999999999
302,10.066666666666663,0.0459708910191989,-0.7190273340441925,-0.280617678381162,17.457256294666667,78.37541044733334,581.34344,7.541593333333338,7.554933333333333
303,10.099999999999994,0.0415335463258785,-0.0820021299254526,0.0212992545260915,17.457256828000002,78.375408214,581.34944,7.507260000000004,7.561599999999999
304,10.133333333333326,-0.2786652467163648,0.2204472843450478,0.3975860844870429,17.457257361333333,78.37540598066667,581.3554399999999,7.472926666666671,7.568266666666666
305,10.166666666666657,0.0481363152286521,-0.0013489527862731,-0.1530706425271947,17.457257919333333,78.375403772,581.3678533333333,7.456600000000002,7.542866666666671
306,10.199999999999989,0.1056443024489008,0.830031948882748,-0.4097976570810142,17.457258486,78.375401572,581.38252,7.446600000000002,7.506200000000004
307,10.23333333333332,-0.1652822151241487,1.1319133830333992,0.5251686190985967,17.457259052666664,78.375399372,581.3971866666666,7.436600000000001,7.469533333333338
308,10.266666666666652,0.3436279730197819,-0.8634007809723354,0.1001774937877863,17.457259644,78.375397098,581.4096333333333,7.462366666666655,7.452600000000003
309,10.300000000000011,0.0500532481370053,0.8903088391911186,-0.9099041533526856,17.457260244,78.375394798,581.4213,7.500700000000009,7.442599999999997
310,10.333333333333343,0.2707135250281931,0.0337948171813404,-0.0550230741943465,17.457260844,78.375392498,581.4329666666667,7.539033333333332,7.4326
311,10.366666666666674,0.3264465743698014,0.3392261270858195,0.0897408590696395,17.457261394666666,78.37539017333333,581.4436466666667,7.565526666666664,7.459599999999995
312,10.400000000000006,0.1216187433439829,0.1209797657082001,-0.607667731629393,17.457261928,78.37538784,581.45398,7.587859999999997,7.499599999999995
313,10.433333333333337,0.1687965921191509,0.999023784167981,-0.1220269790562696,17.457262461333332,78.37538550666666,581.4643133333333,7.61019333333333,7.539599999999995
314,10.466666666666669,0.3276535321263756,0.6592119275825347,-0.6357827476038339,17.45726303960396,78.3753831660066,581.475303630363,7.6413993399339875,7.567095709570953
315,10.5,0.3024494142705005,0.2193823216187433,-0.349307774227902,17.457263633663366,78.37538082277227,581.4865247524752,7.67572277227722,7.590198019801975
316,10.533333333333331,-0.0077387291445137,0.7661341853039647,0.1689030883919643,17.45726422772277,78.37537847953794,581.4977458745874,7.710046204620453,7.613300330032998
317,10.566666666666663,-0.1811146609870494,1.1257365992197563,0.238338658147012,17.457264707666667,78.375376238,581.5104666666666,7.66675000000002,7.6436666666666575
318,10.599999999999994,0.0551650692214984,-1.3064962726305234,0.4242811501590506,17.457265141,78.375374038,581.5238,7.59175000000002,7.676999999999991
319,10.633333333333326,-0.0540291089819083,0.3754348597805869,-0.7049343273000191,17.457265574333334,78.375371838,581.5371333333334,7.51675000000002,7.710333333333324
320,10.666666666666657,-0.0337948171812799,0.3384451544191158,0.103159389422455,17.457266126,78.37536951966666,581.5511766666667,7.534286666666652,7.667933333333353
321,10.699999999999989,0.0511182108632251,-0.0302449414285901,0.1635782747599935,17.457266726,78.375367153,581.56551,7.589619999999985,7.594600000000019
322,10.73333333333332,0.0428115015973968,-0.0629037983674772,-0.1263045793394361,17.457267326,78.37536478633334,581.5798433333333,7.644953333333318,7.521266666666686
323,10.766666666666652,0.0605608803692063,-0.1679801206959051,0.0615548455803792,17.457267902333335,78.37536249066666,581.59465,7.646326666666672,7.537866666666653
324,10.800000000000011,0.1405750798722044,-0.2523961661341853,-0.1022364217252396,17.457268469,78.375360224,581.60965,7.6256599999999874,7.591200000000032
325,10.833333333333343,-0.0102946396876109,0.3457578984735533,0.1686190983315583,17.457269035666666,78.37535795733334,581.62465,7.604993333333321,7.644533333333364
326,10.866666666666674,0.0301739439120816,-0.219826056088325,0.0645189918352548,17.457269555,78.37535564333334,581.62687,7.595449999999998,7.645799999999992
327,10.900000000000006,-0.0532481363151381,0.6057507987220375,-0.1286474973372408,17.457270055,78.37535331,581.62387,7.59045,7.625799999999998
328,10.933333333333337,0.0487042953496469,-0.1002484913024763,-0.2457223997159215,17.457270554999997,78.37535097666667,581.62087,7.585450000000001,7.605800000000003
329,10.966666666666669,-0.0307419240324965,-0.0798012069580204,-0.0257011004618276,17.45727103133333,78.37534869066666,581.6254433333334,7.562226666666675,7.597633333333334
330,11.0,0.0496272630458272,-0.1256656017037829,-0.3237486687966041,17.457271498,78.375346424,581.63311,7.531560000000008,7.5943
331,11.033333333333331,0.0149804756835229,0.3662761803334437,-0.0837770678030385,17.457271964666667,78.37534415733333,581.6407766666667,7.500893333333341,7.5909666666666675
332,11.066666666666663,0.0597799077030172,-0.1494497692574705,0.1033723819666335,17.45727247491749,78.37534190660067,581.6467491749175,7.489188118811882,7.566567656765686
333,11.099999999999994,-0.0464323748667924,0.0581469648561549,0.195314164004238,17.457273002970297,78.37533966237623,581.6520297029703,7.4852277227722785,7.533564356435655
334,11.133333333333326,0.0132055378061731,0.5681221157258394,0.1241036563719918,17.4572735310231,78.37533741815182,581.6573102310231,7.4812673267326755,7.500561056105623
335,11.166666666666629,0.0283990060347887,-0.4185303514376997,-0.0369187078452253,17.457273994666664,78.37533518133334,581.65832,7.458013333333347,7.487733333333335
336,11.199999999999989,0.0063897763578274,0.1150159744408945,0.1139510117145899,17.457274427999998,78.37533294800001,581.6573199999999,7.425680000000013,7.484400000000002
337,11.233333333333292,0.0400425985088196,0.0097976570839344,0.0861199858004921,17.45727486133333,78.37533071466667,581.6563199999999,7.39334666666668,7.481066666666669
338,11.266666666666652,0.0332978345760416,-0.046361377351933,-0.0007809726666492,17.457275249333332,78.37532845866667,581.6535066666667,7.370080000000008,7.457333333333347
339,11.300000000000011,0.0425985090520393,-0.4834930777416812,-0.0801384451544289,17.457275616,78.375326192,581.6498399999999,7.351079999999992,7.423999999999985
340,11.333333333333314,0.0589279375219445,-0.0385516506920876,0.4450834220805516,17.45727598266667,78.37532392533333,581.6461733333333,7.332079999999991,7.390666666666652
341,11.366666666666674,0.0496982605608197,-0.2727724529643084,-0.1745118920836511,17.457276394666668,78.375321704,581.6445466666667,7.319426666666662,7.368666666666659
342,11.400000000000006,0.0132055378060823,0.0004259850902821,0.0477103301376569,17.457276828,78.375319504,581.64388,7.309759999999995,7.351999999999992
343,11.433333333333309,0.0952076677313751,-0.2864749733765976,0.155626553070356,17.45727726133333,78.375317304,581.6432133333334,7.300093333333328,7.335333333333326
344,11.466666666666669,0.0186723464678324,0.3998580049700306,0.1813276535320875,17.45727764933333,78.37531510400001,581.6377866666667,7.265493333333322,7.323199999999997
345,11.5,0.0579339723109836,0.2837060702873122,-0.0234291799787491,17.457278016,78.375312904,581.63012,7.219160000000001,7.3132
346,11.533333333333331,0.0614128505502307,-0.313809016684416,0.1551295704650336,17.45727838266667,78.375310704,581.6224533333334,7.172826666666682,7.303200000000003
347,11.566666666666634,0.0837770678026268,0.2090876819311324,-0.0191693290734824,17.4572787019802,78.37530851881188,581.6137161716172,7.1494719471947255,7.268580858085829
348,11.599999999999994,0.0796592119275824,0.1784877529286474,-0.1431309904153354,17.4572789990099,78.37530634059407,581.6044752475248,7.1369306930693135,7.222376237623785
349,11.633333333333326,0.0756123535676251,-0.1023784167549583,0.2281150159743573,17.457279296039605,78.37530416237624,581.5952343234324,7.1243894389439015,7.176171617161741
350,11.666666666666629,0.1331203407878832,0.0678026269077832,-0.046858359957742,17.45727966,78.37530199166667,581.5946,7.12065,7.151333333333341
351,11.699999999999989,0.1037273695420442,-0.0274760383395952,0.1823216187434783,17.457280060000002,78.375299825,581.5986,7.12165,7.138000000000008
352,11.733333333333292,0.0051473198434435,0.1854810081657648,0.2513312034078807,17.45728046,78.37529765833332,581.6026,7.122649999999999,7.124666666666674
353,11.766666666666652,0.0562300319494556,-0.4788782392619769,-0.1546325878590689,17.457280816666668,78.37529544833333,581.6044333333334,7.13838333333332,7.12
354,11.800000000000011,0.1307774227898862,0.1567625133125679,0.1787007454737558,17.45728115,78.375293215,581.6051,7.162050000000007,7.12
355,11.833333333333314,0.0677316293929348,-0.2829250976218758,-0.1123180688678942,17.457281483333336,78.37529098166667,581.6057666666667,7.185716666666674,7.12
356,11.866666666666674,-3.6315568607836474e-14,0.1428470003549137,0.5466098686545765,17.457281795,78.37528874833333,581.5953833333333,7.17991666666666,7.135166666666674
357,11.900000000000006,0.154419595314164,0.516506922257721,-0.1299254526091587,17.457282095,78.375286515,581.57905,7.158249999999994,7.158500000000007
358,11.933333333333309,0.1551295704650337,0.0046148384806532,-0.0330138445154419,17.457282395,78.37528428166667,581.5627166666667,7.136583333333326,7.181833333333341
359,11.966666666666669,0.1076322328716339,0.523180688675561,-0.2864749733757321,17.457282673333335,78.37528204833333,581.5518,7.137450000000004,7.176999999999994
360,12.0,0.2153354632585388,0.2455804046855914,-0.1192758253459312,17.457282940000002,78.375279815,581.5438,7.150450000000004,7.156999999999994
361,12.033333333333331,0.2063897763575186,0.4726304579336938,-0.0370607028746668,17.457283206666666,78.37527758166667,581.5358,7.163450000000004,7.136999999999994
362,12.066666666666634,0.2373446929350954,0.3664891728788745,0.0197373091941519,17.45728349306931,78.37527536270626,581.5342871287129,7.17808250825083,7.138580858085812
363,12.099999999999994,0.209797657080587,0.5090521831727792,5.599548602575055e-13,17.45728379009901,78.37527315148515,581.5362673267326,7.193594059405944,7.151782178217824
364,12.133333333333326,0.073908413204499,0.4280440184588914,-0.0205892793752823,17.457284087128713,78.37527094026402,581.5382475247525,7.209105610561059,7.164983498349837
365,12.166666666666629,-0.1375931842381956,0.7077742279005924,0.0990415335455993,17.457284387878786,78.3752687013468,581.5346161616162,7.205814814814815,7.180437710437711
366,12.199999999999989,0.0960596379123049,0.2634717784877674,0.1160809371668964,17.45728469090909,78.37526644545454,581.5275454545455,7.191000000000003,7.197272727272723
367,12.233333333333292,0.0893148739793513,-0.1160809371677803,-0.2391196308128501,17.457284993939393,78.37526418956229,581.5204747474747,7.176185185185193,7.214107744107736
368,12.266666666666652,-0.0102946396873768,0.5005324813619113,-0.5647852325170415,17.457285295,78.37526199166666,581.5197333333333,7.145000000000023,7.209166666666675
369,12.300000000000011,-0.0766773162939297,0.1735889243876464,-0.0841320553780617,17.457285595,78.375259825,581.5224,7.104999999999988,7.192499999999995
370,12.333333333333314,0.0169684061057596,-0.2893858714935738,0.325381611643642,17.457285895,78.37525765833333,581.5250666666666,7.064999999999988,7.175833333333328
371,12.366666666666674,0.0237841675541476,-0.5357472488454028,-0.4045438409656158,17.45728610833333,78.37525542666667,581.5229666666667,7.081333333333348,7.143999999999988
372,12.400000000000006,0.0166134185300826,-0.5122470713503355,0.0274760383379365,17.457286274999998,78.37525316,581.5183,7.128000000000014,7.103999999999988
373,12.433333333333309,0.0166134185303005,-0.8804401845914955,-0.0611998580056404,17.457286441666664,78.37525089333333,581.5136333333332,7.17466666666668,7.063999999999988
374,12.466666666666669,-0.0258430954913025,-1.35399361022317,0.161164359247618,17.457286716666665,78.37524862666666,581.5156833333333,7.202916666666672,7.080333333333347
375,12.5,0.0349307774234125,-0.3450479233218362,-0.6138445154411387,17.457287049999998,78.37524635999999,581.52135,7.221250000000006,7.127000000000014
376,12.533333333333331,0.0031948881787169,-0.7671281505141165,0.4156904508352247,17.457287383333334,78.37524409333332,581.5270166666667,7.239583333333339,7.173666666666681
377,12.566666666666634,0.1108271210508442,-0.5018814341493301,0.0895988640397028,17.45728765319865,78.3752418117845,581.5322828282829,7.261976430976435,7.203131313131316
378,12.599999999999994,0.1094781682640429,-0.5013844515439041,-0.0443024494140561,17.45728788888889,78.37523952222222,581.5373333333333,7.2865555555555535,7.223333333333332
379,12.633333333333326,0.0603478878239261,-0.5789847355342562,0.260560880369187,17.457288124579126,78.37523723265993,581.5423838383838,7.311134680134672,7.243535353535347
380,12.666666666666629,0.1153709620163293,-0.8796592119275826,-0.0898118565850195,17.457288381333335,78.375235004,581.5455866666666,7.292933333333349,7.265866666666657
381,12.699999999999989,-0.071991480298514,0.9256656017073498,0.3831735889257242,17.457288648,78.37523280399999,581.54792,7.254600000000016,7.28919999999999
382,12.733333333333292,0.2299609513665907,-0.877529286470978,-0.5833865814695324,17.457288914666666,78.375230604,581.5502533333333,7.216266666666682,7.312533333333324
383,12.766666666666652,-0.0138445154421774,0.0993965211223782,0.1706780262694655,17.457289158666665,78.375228404,581.5494133333334,7.189266666666676,7.292800000000017
384,12.800000000000011,0.0638977635779357,0.4398296059612729,0.8008519701805109,17.457289392,78.375226204,581.54708,7.16759999999999,7.252799999999983
385,12.833333333333314,0.0702165424211096,0.3601703940352171,-0.7432729854439694,17.457289625333335,78.375224004,581.5447466666667,7.145933333333324,7.212799999999983
386,12.866666666666674,0.0591409300672551,0.4477813276513274,0.6179623713188962,17.457289858666666,78.37522178133334,581.55148,7.14965333333334,7.186399999999991
387,12.900000000000006,0.1980830670926517,-0.3997870074547391,-0.5850905218317358,17.457290092,78.375219548,581.56248,7.165320000000007,7.166399999999991
388,12.933333333333309,-0.0268370607027373,0.4046148384804873,0.0438764643235743,17.457290325333336,78.37521731466667,581.57348,7.180986666666674,7.146399999999991
389,12.966666666666669,0.1281505147319843,1.1206957756478524,0.2009229676961305,17.457290583164983,78.37521504309764,581.5838686868686,7.201340067340074,7.151447811447816
390,13.0,0.3258785942492013,-0.2705005324813631,-0.88604898828541,17.457290852525254,78.37521275353535,581.5939696969697,7.2238989898989905,7.1682828282828295
391,13.033333333333331,0.0915867944621938,0.9077032303869365,0.0709975150869719,17.457291121885522,78.37521046397306,581.6040707070707,7.246457912457908,7.185117845117842
392,13.066666666666634,0.1803336883210298,0.4043308484201116,-0.1694710685127521,17.457291318333333,78.37520819066665,581.6060533333333,7.260573333333331,7.204199999999995
393,13.099999999999994,0.1529286474973376,1.007880724174654,0.5256656017039404,17.457291485,78.375205924,581.6047199999999,7.271239999999997,7.224199999999995
394,13.133333333333326,0.2906638267662846,-0.1094071707501279,-0.4780972665949645,17.457291651666665,78.37520365733333,581.6033866666667,7.281906666666664,7.244199999999995
395,13.166666666666629,-0.0259850905221913,1.0306709265161118,-0.3015264465752706,17.457291865666665,78.37520141433333,581.6091533333333,7.278846666666669,7.257099999999998
396,13.199999999999989,0.0178913738010379,0.5033013844509243,-0.1533546325877746,17.457292099,78.375199181,581.6178199999999,7.270180000000002,7.267099999999997
397,13.233333333333292,-0.1444089456881213,0.2257011004604038,0.3643592474251946,17.457292332333335,78.37519694766667,581.6264866666667,7.261513333333336,7.277099999999997
398,13.266666666666652,-0.0895278665249343,0.8916577919769152,-0.530635427760589,17.457292518333333,78.37519471433333,581.63894,7.252846666666669,7.275266666666669
399,13.300000000000011,-0.1145899893506487,-0.1160809371645114,-0.0387646432382276,17.457292685,78.375192481,581.6529400000001,7.244179999999995,7.268599999999996
400,13.333333333333314,-0.1899183528576499,0.7678381256656017,-0.4707135250266241,17.457292851666665,78.37519024766667,581.6669400000001,7.235513333333328,7.261933333333329
401,13.366666666666674,-0.2218672346467873,0.1881434149804757,-0.0507632232871849,17.457293065666665,78.375187967,581.67029,7.255483333333346,7.252899999999996
402,13.400000000000006,-0.1280085197019569,-0.3552715654938977,0.0907348242814358,17.457293299,78.375185667,581.66929,7.287150000000003,7.242899999999999
403,13.433333333333309,-0.0935037273694257,-0.3532126375567894,-0.504011359602466,17.457293532333335,78.37518336699999,581.66829,7.318816666666661,7.232900000000002
404,13.466666666666669,-0.1490237841677151,-0.2511182108613595,-0.2360667376644965,17.457293694666667,78.37518111433333,581.6677633333334,7.307173333333341,7.253666666666658
405,13.5,-0.061128860490309,-0.8421725239587846,-0.1052183173593573,17.457293828,78.375178881,581.66743,7.277840000000008,7.286999999999991
406,13.533333333333331,-0.1992900248490434,-0.8742634007787913,-0.1641462548809923,17.457293961333335,78.37517664766666,581.6670966666667,7.248506666666675,7.320333333333324
407,13.566666666666634,-0.054384096556078,-1.048562300318784,-0.0958466453671942,17.457294071,78.37517446166666,581.66558,7.21373000000001,7.308700000000008
408,13.599999999999994,-0.0636847710327281,-0.714802981895653,0.0788072417472895,17.457294171,78.375172295,581.66358,7.17673000000001,7.278700000000008
409,13.633333333333326,-0.0920837770672202,0.0249911253097956,-0.1840255591049337,17.457294271000002,78.37517012833334,581.66158,7.139730000000009,7.248700000000008
410,13.666666666666629,0.0274760383385781,-2.024423145190528,0.2290379836703438,17.45729439466667,78.375167867,581.6541366666667,7.15668999999999,7.213966666666677
411,13.699999999999989,0.0564430244941427,-0.8615548455804047,0.2854100106496273,17.457294528,78.375165567,581.64447,7.19568999999999,7.17730000000001
412,13.733333333333292,-0.0372736954204423,-0.163294284696262,0.2587859424950881,17.457294661333332,78.37516326699999,581.6348033333333,7.23468999999999,7.140633333333343
413,13.766666666666652,0.0750443734475879,-1.1945331913366808,0.3476748313784367,17.457294794666666,78.375161038,581.632,7.217126666666678,7.15839999999999
414,13.800000000000011,0.0785942492011556,-0.7022364217251996,-0.4266240681578421,17.457294928,78.375158838,581.632,7.176459999999976,7.198400000000024
415,13.833333333333314,0.0742634007812111,-0.657294994675793,0.5121050763220394,17.457295061333333,78.375156638,581.632,7.135793333333309,7.238400000000023
416,13.866666666666674,0.0507632232873786,-0.9038693645753298,0.2119985800505965,17.457295194666667,78.37515436700001,581.62987,7.1540566666666825,7.219233333333316
417,13.900000000000006,0.0423855165072055,0.1378061767819262,-0.1706070287546546,17.457295328,78.375152067,581.62687,7.1963900000000045,7.175899999999996
418,13.933333333333309,0.0058927937519199,-0.2981185658519426,0.4472133475330099,17.457295461333334,78.375149767,581.62387,7.238723333333326,7.1325666666666745
419,13.966666666666669,0.0285410010648961,-0.0376996805108914,-0.427973020944838,17.457295594666668,78.37514751433334,581.62726,7.245320000000002,7.150766666666655
420,14.0,-0.0198083067093595,0.3433439829607925,0.5559105431309723,17.457295728,78.375145281,581.63326,7.237320000000002,7.194099999999988
